condition	part_id	part_gender	part_age	instagram	messenger	imessage	screentime	part_normal_vision	block_num	trial_num	number	omit_num	resp_acc	resp_rt	trial_start_time_s	trial_end_time_s	mean_trial_time_s	timing_function
3	ma5392	Female	23	True	True	True	1,15	Yes - corrected-to-normal vision	0	1	9	3	0	NA	31.499156	33.557426	2.056359277777778	time.process_time()
3	ma5392	Female	23	True	True	True	1,15	Yes - corrected-to-normal vision	0	2	9	3	1	0.46512387500843033	33.557713	35.614088	2.056359277777778	time.process_time()
3	ma5392	Female	23	True	True	True	1,15	Yes - corrected-to-normal vision	0	3	6	3	1	0.459993750002468	35.614376	37.67017	2.056359277777778	time.process_time()
3	ma5392	Female	23	True	True	True	1,15	Yes - corrected-to-normal vision	0	4	4	3	1	0.3432714579976164	37.670483	39.727687	2.056359277777778	time.process_time()
3	ma5392	Female	23	True	True	True	1,15	Yes - corrected-to-normal vision	0	5	7	3	1	0.38902758399490267	39.727975	41.784278	2.056359277777778	time.process_time()
3	ma5392	Female	23	True	True	True	1,15	Yes - corrected-to-normal vision	0	6	1	3	1	0.33517124998616055	41.784567	43.839586	2.056359277777778	time.process_time()
3	ma5392	Female	23	True	True	True	1,15	Yes - corrected-to-normal vision	0	7	6	3	1	0.2964023749809712	43.839852	45.896313	2.056359277777778	time.process_time()
3	ma5392	Female	23	True	True	True	1,15	Yes - corrected-to-normal vision	0	8	2	3	1	0.3400572089885827	45.896582	47.952372	2.056359277777778	time.process_time()
3	ma5392	Female	23	True	True	True	1,15	Yes - corrected-to-normal vision	0	9	5	3	1	0.3163605000008829	47.952693	50.007866	2.056359277777778	time.process_time()
3	ma5392	Female	23	True	True	True	1,15	Yes - corrected-to-normal vision	0	10	7	3	1	0.27225970799918287	50.008133	52.063402	2.056359277777778	time.process_time()
3	ma5392	Female	23	True	True	True	1,15	Yes - corrected-to-normal vision	0	11	8	3	1	0.2907222920039203	52.063669	54.119448	2.056359277777778	time.process_time()
3	ma5392	Female	23	True	True	True	1,15	Yes - corrected-to-normal vision	0	12	4	3	1	0.26486683401162736	54.119725	56.175808	2.056359277777778	time.process_time()
3	ma5392	Female	23	True	True	True	1,15	Yes - corrected-to-normal vision	0	13	3	3	0	0.24103520801872946	56.176087	58.231898	2.056359277777778	time.process_time()
3	ma5392	Female	23	True	True	True	1,15	Yes - corrected-to-normal vision	0	14	3	3	1	NA	58.232167	60.288481	2.056359277777778	time.process_time()
3	ma5392	Female	23	True	True	True	1,15	Yes - corrected-to-normal vision	0	15	8	3	1	0.3261950000014622	60.288766	62.34449	2.056359277777778	time.process_time()
3	ma5392	Female	23	True	True	True	1,15	Yes - corrected-to-normal vision	0	16	1	3	1	0.38807750001433305	62.344772	64.400545	2.056359277777778	time.process_time()
3	ma5392	Female	23	True	True	True	1,15	Yes - corrected-to-normal vision	0	17	2	3	1	0.27167433299473487	64.400814	66.456325	2.056359277777778	time.process_time()
3	ma5392	Female	23	True	True	True	1,15	Yes - corrected-to-normal vision	0	18	5	3	1	0.28987325000343844	66.456599	68.512705	2.056359277777778	time.process_time()
3	ma5392	Female	23	True	True	True	1,15	Yes - corrected-to-normal vision	1	1	5	3	1	0.9270933750085533	76.712947	77.867881	1.1546367777777777	time.process_time()
3	ma5392	Female	23	True	True	True	1,15	Yes - corrected-to-normal vision	1	2	2	3	1	0.7320360409794375	77.868145	79.023182	1.1546367777777777	time.process_time()
3	ma5392	Female	23	True	True	True	1,15	Yes - corrected-to-normal vision	1	3	1	3	1	0.39695612498326227	79.023428	80.177036	1.1546367777777777	time.process_time()
3	ma5392	Female	23	True	True	True	1,15	Yes - corrected-to-normal vision	1	4	4	3	1	0.37674691699794494	80.177271	81.331404	1.1546367777777777	time.process_time()
3	ma5392	Female	23	True	True	True	1,15	Yes - corrected-to-normal vision	1	5	7	3	1	0.352470457990421	81.331641	82.485506	1.1546367777777777	time.process_time()
3	ma5392	Female	23	True	True	True	1,15	Yes - corrected-to-normal vision	1	6	2	3	1	0.27250283301691525	82.485749	83.639576	1.1546367777777777	time.process_time()
3	ma5392	Female	23	True	True	True	1,15	Yes - corrected-to-normal vision	1	7	5	3	1	0.3387406669789925	83.639813	84.793875	1.1546367777777777	time.process_time()
3	ma5392	Female	23	True	True	True	1,15	Yes - corrected-to-normal vision	1	8	1	3	1	0.4273279159970116	84.794118	85.949095	1.1546367777777777	time.process_time()
3	ma5392	Female	23	True	True	True	1,15	Yes - corrected-to-normal vision	1	9	7	3	1	0.274578249984188	85.949345	87.10412	1.1546367777777777	time.process_time()
3	ma5392	Female	23	True	True	True	1,15	Yes - corrected-to-normal vision	1	10	8	3	1	0.2698875420028344	87.104428	88.25935	1.1546367777777777	time.process_time()
3	ma5392	Female	23	True	True	True	1,15	Yes - corrected-to-normal vision	1	11	2	3	1	0.24715079201268964	88.259592	89.413171	1.1546367777777777	time.process_time()
3	ma5392	Female	23	True	True	True	1,15	Yes - corrected-to-normal vision	1	12	8	3	1	0.2631009170145262	89.413407	90.567709	1.1546367777777777	time.process_time()
3	ma5392	Female	23	True	True	True	1,15	Yes - corrected-to-normal vision	1	13	5	3	1	0.27316625000094064	90.567948	91.722813	1.1546367777777777	time.process_time()
3	ma5392	Female	23	True	True	True	1,15	Yes - corrected-to-normal vision	1	14	4	3	1	0.24546824998105876	91.723055	92.876443	1.1546367777777777	time.process_time()
3	ma5392	Female	23	True	True	True	1,15	Yes - corrected-to-normal vision	1	15	3	3	0	0.37066616700030863	92.876685	94.031165	1.1546367777777777	time.process_time()
3	ma5392	Female	23	True	True	True	1,15	Yes - corrected-to-normal vision	1	16	5	3	1	0.5349045000039041	94.031424	95.186979	1.1546367777777777	time.process_time()
3	ma5392	Female	23	True	True	True	1,15	Yes - corrected-to-normal vision	1	17	7	3	1	0.2883772079949267	95.187232	96.341382	1.1546367777777777	time.process_time()
3	ma5392	Female	23	True	True	True	1,15	Yes - corrected-to-normal vision	1	18	8	3	1	0.20426429199869744	96.34162	97.49652	1.1546367777777777	time.process_time()
3	ma5392	Female	23	True	True	True	1,15	Yes - corrected-to-normal vision	1	19	4	3	1	0.25703045798582025	97.496822	98.650855	1.1546367777777777	time.process_time()
3	ma5392	Female	23	True	True	True	1,15	Yes - corrected-to-normal vision	1	20	3	3	0	0.5057955420052167	98.651099	99.80467	1.1546367777777777	time.process_time()
3	ma5392	Female	23	True	True	True	1,15	Yes - corrected-to-normal vision	1	21	6	3	1	0.44405662498320453	99.804914	100.959805	1.1546367777777777	time.process_time()
3	ma5392	Female	23	True	True	True	1,15	Yes - corrected-to-normal vision	1	22	8	3	1	0.3942327499971725	100.960052	102.113512	1.1546367777777777	time.process_time()
3	ma5392	Female	23	True	True	True	1,15	Yes - corrected-to-normal vision	1	23	5	3	1	0.26444354199338704	102.113748	103.268231	1.1546367777777777	time.process_time()
3	ma5392	Female	23	True	True	True	1,15	Yes - corrected-to-normal vision	1	24	3	3	0	0.24915854199207388	103.268472	104.423637	1.1546367777777777	time.process_time()
3	ma5392	Female	23	True	True	True	1,15	Yes - corrected-to-normal vision	1	25	9	3	1	0.2583448330115061	104.423876	105.577786	1.1546367777777777	time.process_time()
3	ma5392	Female	23	True	True	True	1,15	Yes - corrected-to-normal vision	1	26	9	3	1	0.2929258329968434	105.578038	106.733081	1.1546367777777777	time.process_time()
3	ma5392	Female	23	True	True	True	1,15	Yes - corrected-to-normal vision	1	27	4	3	1	0.26376174998586066	106.733367	107.887891	1.1546367777777777	time.process_time()
3	ma5392	Female	23	True	True	True	1,15	Yes - corrected-to-normal vision	1	28	3	3	0	0.30489291599951684	107.888138	109.04241	1.1546367777777777	time.process_time()
3	ma5392	Female	23	True	True	True	1,15	Yes - corrected-to-normal vision	1	29	6	3	1	0.2611735830141697	109.042655	110.197117	1.1546367777777777	time.process_time()
3	ma5392	Female	23	True	True	True	1,15	Yes - corrected-to-normal vision	1	30	2	3	1	0.3562435419880785	110.197365	111.352383	1.1546367777777777	time.process_time()
3	ma5392	Female	23	True	True	True	1,15	Yes - corrected-to-normal vision	1	31	9	3	1	0.3242219160019886	111.352624	112.506531	1.1546367777777777	time.process_time()
3	ma5392	Female	23	True	True	True	1,15	Yes - corrected-to-normal vision	1	32	2	3	1	0.389224499987904	112.506775	113.662168	1.1546367777777777	time.process_time()
3	ma5392	Female	23	True	True	True	1,15	Yes - corrected-to-normal vision	1	33	6	3	1	0.3570788750075735	113.662412	114.816396	1.1546367777777777	time.process_time()
3	ma5392	Female	23	True	True	True	1,15	Yes - corrected-to-normal vision	1	34	1	3	1	0.6714128749736119	114.816633	115.970842	1.1546367777777777	time.process_time()
3	ma5392	Female	23	True	True	True	1,15	Yes - corrected-to-normal vision	1	35	8	3	1	0.43254329200135544	115.971082	117.125565	1.1546367777777777	time.process_time()
3	ma5392	Female	23	True	True	True	1,15	Yes - corrected-to-normal vision	1	36	4	3	1	0.34473258399521	117.125846	118.280039	1.1546367777777777	time.process_time()
3	ma5392	Female	23	True	True	True	1,15	Yes - corrected-to-normal vision	1	37	9	3	1	0.29646325000794604	118.280279	119.434348	1.1546367777777777	time.process_time()
3	ma5392	Female	23	True	True	True	1,15	Yes - corrected-to-normal vision	1	38	7	3	1	0.3014035409723874	119.434587	120.58919	1.1546367777777777	time.process_time()
3	ma5392	Female	23	True	True	True	1,15	Yes - corrected-to-normal vision	1	39	3	3	0	0.2922496249957476	120.58943	121.743637	1.1546367777777777	time.process_time()
3	ma5392	Female	23	True	True	True	1,15	Yes - corrected-to-normal vision	1	40	7	3	1	0.26496624998981133	121.743877	122.89875	1.1546367777777777	time.process_time()
3	ma5392	Female	23	True	True	True	1,15	Yes - corrected-to-normal vision	1	41	6	3	1	0.30167300000903197	122.898987	124.053983	1.1546367777777777	time.process_time()
3	ma5392	Female	23	True	True	True	1,15	Yes - corrected-to-normal vision	1	42	6	3	1	0.29500195902073756	124.054226	125.208189	1.1546367777777777	time.process_time()
3	ma5392	Female	23	True	True	True	1,15	Yes - corrected-to-normal vision	1	43	9	3	1	0.35400133300572634	125.208428	126.363167	1.1546367777777777	time.process_time()
3	ma5392	Female	23	True	True	True	1,15	Yes - corrected-to-normal vision	1	44	1	3	1	0.3978798750031274	126.363408	127.51798	1.1546367777777777	time.process_time()
3	ma5392	Female	23	True	True	True	1,15	Yes - corrected-to-normal vision	1	45	1	3	1	0.36426408399711363	127.518224	128.672463	1.1546367777777777	time.process_time()
3	ma5392	Female	23	True	True	True	1,15	Yes - corrected-to-normal vision	1	46	3	3	1	NA	128.672702	129.826931	1.1546367777777777	time.process_time()
3	ma5392	Female	23	True	True	True	1,15	Yes - corrected-to-normal vision	1	47	4	3	1	0.3303647499997169	129.827161	130.981365	1.1546367777777777	time.process_time()
3	ma5392	Female	23	True	True	True	1,15	Yes - corrected-to-normal vision	1	48	9	3	1	0.34681762498803437	130.981611	132.135326	1.1546367777777777	time.process_time()
3	ma5392	Female	23	True	True	True	1,15	Yes - corrected-to-normal vision	1	49	6	3	1	0.4477919170167297	132.135564	133.29018	1.1546367777777777	time.process_time()
3	ma5392	Female	23	True	True	True	1,15	Yes - corrected-to-normal vision	1	50	4	3	1	0.305387750006048	133.290424	134.444636	1.1546367777777777	time.process_time()
3	ma5392	Female	23	True	True	True	1,15	Yes - corrected-to-normal vision	1	51	1	3	1	0.35183374999905936	134.444872	135.599444	1.1546367777777777	time.process_time()
3	ma5392	Female	23	True	True	True	1,15	Yes - corrected-to-normal vision	1	52	9	3	1	0.32077099999878556	135.599689	136.753818	1.1546367777777777	time.process_time()
3	ma5392	Female	23	True	True	True	1,15	Yes - corrected-to-normal vision	1	53	3	3	1	NA	136.754078	137.907349	1.1546367777777777	time.process_time()
3	ma5392	Female	23	True	True	True	1,15	Yes - corrected-to-normal vision	1	54	6	3	1	0.4315786670194939	137.907596	139.062331	1.1546367777777777	time.process_time()
3	ma5392	Female	23	True	True	True	1,15	Yes - corrected-to-normal vision	1	55	6	3	1	0.4804029999941122	139.062569	140.216919	1.1546367777777777	time.process_time()
3	ma5392	Female	23	True	True	True	1,15	Yes - corrected-to-normal vision	1	56	5	3	1	0.6099329169956036	140.217168	141.371752	1.1546367777777777	time.process_time()
3	ma5392	Female	23	True	True	True	1,15	Yes - corrected-to-normal vision	1	57	2	3	1	0.3448546669969801	141.371994	142.526538	1.1546367777777777	time.process_time()
3	ma5392	Female	23	True	True	True	1,15	Yes - corrected-to-normal vision	1	58	7	3	1	0.31788212500396185	142.526783	143.681637	1.1546367777777777	time.process_time()
3	ma5392	Female	23	True	True	True	1,15	Yes - corrected-to-normal vision	1	59	8	3	1	0.49889679200714454	143.681879	144.835741	1.1546367777777777	time.process_time()
3	ma5392	Female	23	True	True	True	1,15	Yes - corrected-to-normal vision	1	60	8	3	1	0.5211999580205884	144.83598	145.990844	1.1546367777777777	time.process_time()
3	ma5392	Female	23	True	True	True	1,15	Yes - corrected-to-normal vision	1	61	2	3	1	0.42300662500201724	145.991089	147.14508	1.1546367777777777	time.process_time()
3	ma5392	Female	23	True	True	True	1,15	Yes - corrected-to-normal vision	1	62	2	3	1	0.5377985000086483	147.145367	148.300173	1.1546367777777777	time.process_time()
3	ma5392	Female	23	True	True	True	1,15	Yes - corrected-to-normal vision	1	63	1	3	1	0.42362375001539476	148.300413	149.454938	1.1546367777777777	time.process_time()
3	ma5392	Female	23	True	True	True	1,15	Yes - corrected-to-normal vision	1	64	9	3	1	0.5003292080073152	149.45518	150.608981	1.1546367777777777	time.process_time()
3	ma5392	Female	23	True	True	True	1,15	Yes - corrected-to-normal vision	1	65	2	3	1	0.4816637500189245	150.609219	151.763187	1.1546367777777777	time.process_time()
3	ma5392	Female	23	True	True	True	1,15	Yes - corrected-to-normal vision	1	66	5	3	1	0.6421416249941103	151.76343	152.918363	1.1546367777777777	time.process_time()
3	ma5392	Female	23	True	True	True	1,15	Yes - corrected-to-normal vision	1	67	5	3	1	0.4425453750009183	152.918606	154.072277	1.1546367777777777	time.process_time()
3	ma5392	Female	23	True	True	True	1,15	Yes - corrected-to-normal vision	1	68	6	3	1	0.3018210839945823	154.072516	155.227383	1.1546367777777777	time.process_time()
3	ma5392	Female	23	True	True	True	1,15	Yes - corrected-to-normal vision	1	69	6	3	1	0.3285483750223648	155.227625	156.382057	1.1546367777777777	time.process_time()
3	ma5392	Female	23	True	True	True	1,15	Yes - corrected-to-normal vision	1	70	1	3	1	0.37065216701012105	156.382321	157.536621	1.1546367777777777	time.process_time()
3	ma5392	Female	23	True	True	True	1,15	Yes - corrected-to-normal vision	1	71	7	3	1	0.36529608300770633	157.536858	158.690946	1.1546367777777777	time.process_time()
3	ma5392	Female	23	True	True	True	1,15	Yes - corrected-to-normal vision	1	72	5	3	1	0.39015658397693187	158.691183	159.846224	1.1546367777777777	time.process_time()
3	ma5392	Female	23	True	True	True	1,15	Yes - corrected-to-normal vision	1	73	3	3	1	NA	159.846476	161.000657	1.1546367777777777	time.process_time()
3	ma5392	Female	23	True	True	True	1,15	Yes - corrected-to-normal vision	1	74	3	3	0	0.27726237502065487	161.000899	162.155258	1.1546367777777777	time.process_time()
3	ma5392	Female	23	True	True	True	1,15	Yes - corrected-to-normal vision	1	75	2	3	1	0.37568066600942984	162.155512	163.308931	1.1546367777777777	time.process_time()
3	ma5392	Female	23	True	True	True	1,15	Yes - corrected-to-normal vision	1	76	8	3	1	0.3579991250007879	163.309172	164.46313	1.1546367777777777	time.process_time()
3	ma5392	Female	23	True	True	True	1,15	Yes - corrected-to-normal vision	1	77	1	3	1	0.26550774998031557	164.463371	165.617353	1.1546367777777777	time.process_time()
3	ma5392	Female	23	True	True	True	1,15	Yes - corrected-to-normal vision	1	78	4	3	1	0.33152874998631887	165.617593	166.771782	1.1546367777777777	time.process_time()
3	ma5392	Female	23	True	True	True	1,15	Yes - corrected-to-normal vision	1	79	8	3	1	0.3170726659882348	166.772064	167.926536	1.1546367777777777	time.process_time()
3	ma5392	Female	23	True	True	True	1,15	Yes - corrected-to-normal vision	1	80	9	3	1	0.27486704202601686	167.926776	169.081493	1.1546367777777777	time.process_time()
3	ma5392	Female	23	True	True	True	1,15	Yes - corrected-to-normal vision	1	81	1	3	1	0.31184345798101276	169.08174	170.236179	1.1546367777777777	time.process_time()
3	ma5392	Female	23	True	True	True	1,15	Yes - corrected-to-normal vision	1	82	8	3	1	0.2494109160033986	170.236445	171.390772	1.1546367777777777	time.process_time()
3	ma5392	Female	23	True	True	True	1,15	Yes - corrected-to-normal vision	1	83	5	3	1	0.2682981250109151	171.391016	172.545477	1.1546367777777777	time.process_time()
3	ma5392	Female	23	True	True	True	1,15	Yes - corrected-to-normal vision	1	84	4	3	1	0.29385579100926407	172.54572	173.699807	1.1546367777777777	time.process_time()
3	ma5392	Female	23	True	True	True	1,15	Yes - corrected-to-normal vision	1	85	7	3	1	0.3187991669983603	173.700047	174.854822	1.1546367777777777	time.process_time()
3	ma5392	Female	23	True	True	True	1,15	Yes - corrected-to-normal vision	1	86	3	3	0	0.26372583300690167	174.855076	176.010422	1.1546367777777777	time.process_time()
3	ma5392	Female	23	True	True	True	1,15	Yes - corrected-to-normal vision	1	87	4	3	1	0.32259341698954813	176.010755	177.165428	1.1546367777777777	time.process_time()
3	ma5392	Female	23	True	True	True	1,15	Yes - corrected-to-normal vision	1	88	9	3	1	0.3574278330197558	177.16568	178.319965	1.1546367777777777	time.process_time()
3	ma5392	Female	23	True	True	True	1,15	Yes - corrected-to-normal vision	1	89	7	3	1	0.35966116600320674	178.320207	179.47476	1.1546367777777777	time.process_time()
3	ma5392	Female	23	True	True	True	1,15	Yes - corrected-to-normal vision	1	90	7	3	1	0.3851292920007836	179.475007	180.629546	1.1546367777777777	time.process_time()
