condition	part_id	part_gender	part_age	instagram	messenger	imessage	screentime	part_normal_vision	block_num	trial_num	number	omit_num	resp_acc	resp_rt	trial_start_time_s	trial_end_time_s	mean_trial_time_s	timing_function
1	mv0802	Female	20	True	True	False	2,30	Yes - normal vision	0	1	2	3	0	NA	48.643069	50.699496	2.056290111111111	time.process_time()
1	mv0802	Female	20	True	True	False	2,30	Yes - normal vision	0	2	3	3	1	NA	50.699771	52.755521	2.056290111111111	time.process_time()
1	mv0802	Female	20	True	True	False	2,30	Yes - normal vision	0	3	9	3	1	0.35976545899757184	52.755797	54.812017	2.056290111111111	time.process_time()
1	mv0802	Female	20	True	True	False	2,30	Yes - normal vision	0	4	6	3	1	0.3649948749807663	54.812308	56.868799	2.056290111111111	time.process_time()
1	mv0802	Female	20	True	True	False	2,30	Yes - normal vision	0	5	3	3	0	0.3526779579988215	56.869091	58.924618	2.056290111111111	time.process_time()
1	mv0802	Female	20	True	True	False	2,30	Yes - normal vision	0	6	1	3	1	0.39220258401473984	58.924891	60.981296	2.056290111111111	time.process_time()
1	mv0802	Female	20	True	True	False	2,30	Yes - normal vision	0	7	7	3	1	0.4755370829952881	60.981578	63.037475	2.056290111111111	time.process_time()
1	mv0802	Female	20	True	True	False	2,30	Yes - normal vision	0	8	6	3	1	0.39689458298380487	63.037752	65.093244	2.056290111111111	time.process_time()
1	mv0802	Female	20	True	True	False	2,30	Yes - normal vision	0	9	1	3	1	0.409235750004882	65.093515	67.149092	2.056290111111111	time.process_time()
1	mv0802	Female	20	True	True	False	2,30	Yes - normal vision	0	10	4	3	1	0.4033269170031417	67.149365	69.206112	2.056290111111111	time.process_time()
1	mv0802	Female	20	True	True	False	2,30	Yes - normal vision	0	11	5	3	1	0.39161795799736865	69.206408	71.261927	2.056290111111111	time.process_time()
1	mv0802	Female	20	True	True	False	2,30	Yes - normal vision	0	12	5	3	1	0.4320544580114074	71.262242	73.317915	2.056290111111111	time.process_time()
1	mv0802	Female	20	True	True	False	2,30	Yes - normal vision	0	13	9	3	1	0.5349718749930616	73.318212	75.37397	2.056290111111111	time.process_time()
1	mv0802	Female	20	True	True	False	2,30	Yes - normal vision	0	14	7	3	1	0.40938695799559355	75.374251	77.430485	2.056290111111111	time.process_time()
1	mv0802	Female	20	True	True	False	2,30	Yes - normal vision	0	15	8	3	1	0.3389155420009047	77.43076	79.486532	2.056290111111111	time.process_time()
1	mv0802	Female	20	True	True	False	2,30	Yes - normal vision	0	16	8	3	1	0.3504132079833653	79.486801	81.542746	2.056290111111111	time.process_time()
1	mv0802	Female	20	True	True	False	2,30	Yes - normal vision	0	17	2	3	1	0.4868302910181228	81.543063	83.599302	2.056290111111111	time.process_time()
1	mv0802	Female	20	True	True	False	2,30	Yes - normal vision	0	18	4	3	1	0.4120882909919601	83.599576	85.655394	2.056290111111111	time.process_time()
1	mv0802	Female	20	True	True	False	2,30	Yes - normal vision	1	1	4	3	1	0.4902532090200111	90.938695	92.094287	1.1546771111111112	time.process_time()
1	mv0802	Female	20	True	True	False	2,30	Yes - normal vision	1	2	3	3	1	NA	92.094544	93.249414	1.1546771111111112	time.process_time()
1	mv0802	Female	20	True	True	False	2,30	Yes - normal vision	1	3	5	3	1	0.32057016697945073	93.249658	94.404357	1.1546771111111112	time.process_time()
1	mv0802	Female	20	True	True	False	2,30	Yes - normal vision	1	4	2	3	1	0.33262987501802854	94.404603	95.559534	1.1546771111111112	time.process_time()
1	mv0802	Female	20	True	True	False	2,30	Yes - normal vision	1	5	7	3	1	0.32999270799336955	95.559821	96.713809	1.1546771111111112	time.process_time()
1	mv0802	Female	20	True	True	False	2,30	Yes - normal vision	1	6	8	3	1	0.2886888750072103	96.714063	97.868925	1.1546771111111112	time.process_time()
1	mv0802	Female	20	True	True	False	2,30	Yes - normal vision	1	7	2	3	1	0.4377029580064118	97.869184	99.023781	1.1546771111111112	time.process_time()
1	mv0802	Female	20	True	True	False	2,30	Yes - normal vision	1	8	3	3	1	NA	99.024027	100.178415	1.1546771111111112	time.process_time()
1	mv0802	Female	20	True	True	False	2,30	Yes - normal vision	1	9	2	3	1	0.25012041701120324	100.178648	101.333214	1.1546771111111112	time.process_time()
1	mv0802	Female	20	True	True	False	2,30	Yes - normal vision	1	10	6	3	1	0.2923955830046907	101.333457	102.488231	1.1546771111111112	time.process_time()
1	mv0802	Female	20	True	True	False	2,30	Yes - normal vision	1	11	5	3	1	0.3487284170114435	102.488475	103.641898	1.1546771111111112	time.process_time()
1	mv0802	Female	20	True	True	False	2,30	Yes - normal vision	1	12	3	3	0	0.3543601249984931	103.642138	104.796355	1.1546771111111112	time.process_time()
1	mv0802	Female	20	True	True	False	2,30	Yes - normal vision	1	13	6	3	1	0.36877258398453705	104.796648	105.95046	1.1546771111111112	time.process_time()
1	mv0802	Female	20	True	True	False	2,30	Yes - normal vision	1	14	5	3	1	0.3313297079876065	105.950709	107.104965	1.1546771111111112	time.process_time()
1	mv0802	Female	20	True	True	False	2,30	Yes - normal vision	1	15	4	3	1	0.3928275000071153	107.105209	108.259774	1.1546771111111112	time.process_time()
1	mv0802	Female	20	True	True	False	2,30	Yes - normal vision	1	16	9	3	1	0.4330461249919608	108.260015	109.414551	1.1546771111111112	time.process_time()
1	mv0802	Female	20	True	True	False	2,30	Yes - normal vision	1	17	3	3	1	NA	109.414795	110.568669	1.1546771111111112	time.process_time()
1	mv0802	Female	20	True	True	False	2,30	Yes - normal vision	1	18	7	3	1	0.29449904200737365	110.568901	111.723438	1.1546771111111112	time.process_time()
1	mv0802	Female	20	True	True	False	2,30	Yes - normal vision	1	19	4	3	1	0.29442758398363367	111.723685	112.877942	1.1546771111111112	time.process_time()
1	mv0802	Female	20	True	True	False	2,30	Yes - normal vision	1	20	9	3	1	0.27086033299565315	112.878184	114.032197	1.1546771111111112	time.process_time()
1	mv0802	Female	20	True	True	False	2,30	Yes - normal vision	1	21	2	3	1	0.4269559170061257	114.032437	115.186986	1.1546771111111112	time.process_time()
1	mv0802	Female	20	True	True	False	2,30	Yes - normal vision	1	22	1	3	1	0.360131374996854	115.187253	116.341533	1.1546771111111112	time.process_time()
1	mv0802	Female	20	True	True	False	2,30	Yes - normal vision	1	23	7	3	1	0.3704857919947244	116.341772	117.496234	1.1546771111111112	time.process_time()
1	mv0802	Female	20	True	True	False	2,30	Yes - normal vision	1	24	1	3	1	0.3758279999892693	117.496473	118.651539	1.1546771111111112	time.process_time()
1	mv0802	Female	20	True	True	False	2,30	Yes - normal vision	1	25	4	3	1	0.371453833009582	118.651785	119.805752	1.1546771111111112	time.process_time()
1	mv0802	Female	20	True	True	False	2,30	Yes - normal vision	1	26	8	3	1	0.37594224998611026	119.805992	120.960878	1.1546771111111112	time.process_time()
1	mv0802	Female	20	True	True	False	2,30	Yes - normal vision	1	27	3	3	1	NA	120.961118	122.114366	1.1546771111111112	time.process_time()
1	mv0802	Female	20	True	True	False	2,30	Yes - normal vision	1	28	6	3	1	0.22899825000786223	122.114601	123.268509	1.1546771111111112	time.process_time()
1	mv0802	Female	20	True	True	False	2,30	Yes - normal vision	1	29	5	3	1	0.2457432910159696	123.268749	124.422839	1.1546771111111112	time.process_time()
1	mv0802	Female	20	True	True	False	2,30	Yes - normal vision	1	30	6	3	1	0.2524190000258386	124.423125	125.577418	1.1546771111111112	time.process_time()
1	mv0802	Female	20	True	True	False	2,30	Yes - normal vision	1	31	9	3	1	0.22374587500235066	125.577674	126.732159	1.1546771111111112	time.process_time()
1	mv0802	Female	20	True	True	False	2,30	Yes - normal vision	1	32	6	3	1	0.30665116698946804	126.732403	127.887683	1.1546771111111112	time.process_time()
1	mv0802	Female	20	True	True	False	2,30	Yes - normal vision	1	33	5	3	1	0.32877574997837655	127.887933	129.042082	1.1546771111111112	time.process_time()
1	mv0802	Female	20	True	True	False	2,30	Yes - normal vision	1	34	8	3	1	0.3254812090017367	129.042327	130.197196	1.1546771111111112	time.process_time()
1	mv0802	Female	20	True	True	False	2,30	Yes - normal vision	1	35	7	3	1	0.2807754999957979	130.197436	131.351577	1.1546771111111112	time.process_time()
1	mv0802	Female	20	True	True	False	2,30	Yes - normal vision	1	36	9	3	1	0.27805058399098925	131.351827	132.505791	1.1546771111111112	time.process_time()
1	mv0802	Female	20	True	True	False	2,30	Yes - normal vision	1	37	1	3	1	0.2744899160170462	132.506033	133.660827	1.1546771111111112	time.process_time()
1	mv0802	Female	20	True	True	False	2,30	Yes - normal vision	1	38	4	3	1	0.40233612500014715	133.661071	134.815719	1.1546771111111112	time.process_time()
1	mv0802	Female	20	True	True	False	2,30	Yes - normal vision	1	39	7	3	1	0.31921695900382474	134.815985	135.96942	1.1546771111111112	time.process_time()
1	mv0802	Female	20	True	True	False	2,30	Yes - normal vision	1	40	2	3	1	0.3782267910137307	135.96966	137.124809	1.1546771111111112	time.process_time()
1	mv0802	Female	20	True	True	False	2,30	Yes - normal vision	1	41	8	3	1	0.4612040829961188	137.125056	138.278969	1.1546771111111112	time.process_time()
1	mv0802	Female	20	True	True	False	2,30	Yes - normal vision	1	42	8	3	1	0.35900054100784473	138.279208	139.433406	1.1546771111111112	time.process_time()
1	mv0802	Female	20	True	True	False	2,30	Yes - normal vision	1	43	1	3	1	0.2804781250015367	139.433646	140.588223	1.1546771111111112	time.process_time()
1	mv0802	Female	20	True	True	False	2,30	Yes - normal vision	1	44	1	3	1	0.30575579099240713	140.588465	141.742756	1.1546771111111112	time.process_time()
1	mv0802	Female	20	True	True	False	2,30	Yes - normal vision	1	45	9	3	1	0.3232758750091307	141.743006	142.897585	1.1546771111111112	time.process_time()
1	mv0802	Female	20	True	True	False	2,30	Yes - normal vision	1	46	7	3	1	0.33541291698929854	142.897828	144.052639	1.1546771111111112	time.process_time()
1	mv0802	Female	20	True	True	False	2,30	Yes - normal vision	1	47	8	3	1	0.3033328340097796	144.052887	145.206826	1.1546771111111112	time.process_time()
1	mv0802	Female	20	True	True	False	2,30	Yes - normal vision	1	48	9	3	1	0.31883029200253077	145.207071	146.362325	1.1546771111111112	time.process_time()
1	mv0802	Female	20	True	True	False	2,30	Yes - normal vision	1	49	3	3	0	0.2779821250005625	146.362568	147.516902	1.1546771111111112	time.process_time()
1	mv0802	Female	20	True	True	False	2,30	Yes - normal vision	1	50	6	3	1	0.25493479100987315	147.517149	148.671418	1.1546771111111112	time.process_time()
1	mv0802	Female	20	True	True	False	2,30	Yes - normal vision	1	51	9	3	1	0.20751808400382288	148.67166	149.826325	1.1546771111111112	time.process_time()
1	mv0802	Female	20	True	True	False	2,30	Yes - normal vision	1	52	8	3	1	0.2627130000037141	149.826574	150.981496	1.1546771111111112	time.process_time()
1	mv0802	Female	20	True	True	False	2,30	Yes - normal vision	1	53	3	3	1	NA	150.981765	152.135509	1.1546771111111112	time.process_time()
1	mv0802	Female	20	True	True	False	2,30	Yes - normal vision	1	54	3	3	0	0.2188429170055315	152.13575	153.290499	1.1546771111111112	time.process_time()
1	mv0802	Female	20	True	True	False	2,30	Yes - normal vision	1	55	2	3	1	0.40362120801000856	153.29074	154.444789	1.1546771111111112	time.process_time()
1	mv0802	Female	20	True	True	False	2,30	Yes - normal vision	1	56	4	3	1	0.30371808298514225	154.445066	155.600383	1.1546771111111112	time.process_time()
1	mv0802	Female	20	True	True	False	2,30	Yes - normal vision	1	57	6	3	1	0.3595037499908358	155.600634	156.754717	1.1546771111111112	time.process_time()
1	mv0802	Female	20	True	True	False	2,30	Yes - normal vision	1	58	1	3	1	0.38671979200444184	156.754965	157.909074	1.1546771111111112	time.process_time()
1	mv0802	Female	20	True	True	False	2,30	Yes - normal vision	1	59	4	3	1	0.34619554100208916	157.909319	159.063334	1.1546771111111112	time.process_time()
1	mv0802	Female	20	True	True	False	2,30	Yes - normal vision	1	60	9	3	1	0.44749595900066197	159.063576	160.218466	1.1546771111111112	time.process_time()
1	mv0802	Female	20	True	True	False	2,30	Yes - normal vision	1	61	6	3	1	0.3433203339809552	160.218712	161.372216	1.1546771111111112	time.process_time()
1	mv0802	Female	20	True	True	False	2,30	Yes - normal vision	1	62	8	3	1	0.2918303750047926	161.372458	162.526473	1.1546771111111112	time.process_time()
1	mv0802	Female	20	True	True	False	2,30	Yes - normal vision	1	63	2	3	1	0.4154117919970304	162.526715	163.680798	1.1546771111111112	time.process_time()
1	mv0802	Female	20	True	True	False	2,30	Yes - normal vision	1	64	5	3	1	0.33758562500588596	163.681042	164.835326	1.1546771111111112	time.process_time()
1	mv0802	Female	20	True	True	False	2,30	Yes - normal vision	1	65	5	3	1	0.34856770900660194	164.835626	165.990618	1.1546771111111112	time.process_time()
1	mv0802	Female	20	True	True	False	2,30	Yes - normal vision	1	66	2	3	1	0.4479559579922352	165.990869	167.144808	1.1546771111111112	time.process_time()
1	mv0802	Female	20	True	True	False	2,30	Yes - normal vision	1	67	4	3	1	0.37782420800067484	167.14505	168.299316	1.1546771111111112	time.process_time()
1	mv0802	Female	20	True	True	False	2,30	Yes - normal vision	1	68	4	3	1	0.4212012500211131	168.299567	169.453899	1.1546771111111112	time.process_time()
1	mv0802	Female	20	True	True	False	2,30	Yes - normal vision	1	69	8	3	1	0.35993091599084437	169.454142	170.608404	1.1546771111111112	time.process_time()
1	mv0802	Female	20	True	True	False	2,30	Yes - normal vision	1	70	5	3	1	0.3798826250131242	170.608645	171.763178	1.1546771111111112	time.process_time()
1	mv0802	Female	20	True	True	False	2,30	Yes - normal vision	1	71	5	3	1	0.39095416700001806	171.763419	172.91827	1.1546771111111112	time.process_time()
1	mv0802	Female	20	True	True	False	2,30	Yes - normal vision	1	72	6	3	1	0.32813275000080466	172.918513	174.072541	1.1546771111111112	time.process_time()
1	mv0802	Female	20	True	True	False	2,30	Yes - normal vision	1	73	1	3	1	0.39338733299518935	174.072832	175.228078	1.1546771111111112	time.process_time()
1	mv0802	Female	20	True	True	False	2,30	Yes - normal vision	1	74	6	3	1	0.382324083999265	175.228326	176.382927	1.1546771111111112	time.process_time()
1	mv0802	Female	20	True	True	False	2,30	Yes - normal vision	1	75	3	3	1	NA	176.383174	177.53719	1.1546771111111112	time.process_time()
1	mv0802	Female	20	True	True	False	2,30	Yes - normal vision	1	76	9	3	1	0.25499937499989755	177.537428	178.691772	1.1546771111111112	time.process_time()
1	mv0802	Female	20	True	True	False	2,30	Yes - normal vision	1	77	8	3	1	0.23399545799475163	178.692028	179.846873	1.1546771111111112	time.process_time()
1	mv0802	Female	20	True	True	False	2,30	Yes - normal vision	1	78	9	3	1	0.26488562498707324	179.847117	181.001078	1.1546771111111112	time.process_time()
1	mv0802	Female	20	True	True	False	2,30	Yes - normal vision	1	79	7	3	1	0.27234949998091906	181.001318	182.156682	1.1546771111111112	time.process_time()
1	mv0802	Female	20	True	True	False	2,30	Yes - normal vision	1	80	7	3	1	0.3067270409956109	182.156956	183.310879	1.1546771111111112	time.process_time()
1	mv0802	Female	20	True	True	False	2,30	Yes - normal vision	1	81	4	3	1	0.3036769169848412	183.311128	184.465716	1.1546771111111112	time.process_time()
1	mv0802	Female	20	True	True	False	2,30	Yes - normal vision	1	82	3	3	1	NA	184.465983	185.620488	1.1546771111111112	time.process_time()
1	mv0802	Female	20	True	True	False	2,30	Yes - normal vision	1	83	7	3	1	0.2740362089825794	185.620732	186.775321	1.1546771111111112	time.process_time()
1	mv0802	Female	20	True	True	False	2,30	Yes - normal vision	1	84	1	3	1	0.19549166699289344	186.775573	187.930242	1.1546771111111112	time.process_time()
1	mv0802	Female	20	True	True	False	2,30	Yes - normal vision	1	85	5	3	1	0.23745025001699105	187.930492	189.085262	1.1546771111111112	time.process_time()
1	mv0802	Female	20	True	True	False	2,30	Yes - normal vision	1	86	1	3	1	0.21939970800303854	189.085509	190.239462	1.1546771111111112	time.process_time()
1	mv0802	Female	20	True	True	False	2,30	Yes - normal vision	1	87	2	3	1	0.30188783298945054	190.239708	191.394532	1.1546771111111112	time.process_time()
1	mv0802	Female	20	True	True	False	2,30	Yes - normal vision	1	88	2	3	1	0.2672100829950068	191.394776	192.549144	1.1546771111111112	time.process_time()
1	mv0802	Female	20	True	True	False	2,30	Yes - normal vision	1	89	7	3	1	0.3578810839971993	192.549392	193.704	1.1546771111111112	time.process_time()
1	mv0802	Female	20	True	True	False	2,30	Yes - normal vision	1	90	1	3	1	0.32283279197872616	193.704293	194.858942	1.1546771111111112	time.process_time()
