condition	part_id	part_gender	part_age	instagram	messenger	imessage	screentime	part_normal_vision	block_num	trial_num	number	omit_num	resp_acc	resp_rt	trial_start_time_s	trial_end_time_s	mean_trial_time_s	timing_function
1	ss1338	Female	20	True	True	False	3,9	Yes - corrected-to-normal vision	0	1	4	3	0	NA	38.063854	40.121015	2.0561487777777776	time.process_time()
1	ss1338	Female	20	True	True	False	3,9	Yes - corrected-to-normal vision	0	2	3	3	0	0.42545133299427107	40.121276	42.177481	2.0561487777777776	time.process_time()
1	ss1338	Female	20	True	True	False	3,9	Yes - corrected-to-normal vision	0	3	5	3	1	0.33877441700315103	42.177816	44.233124	2.0561487777777776	time.process_time()
1	ss1338	Female	20	True	True	False	3,9	Yes - corrected-to-normal vision	0	4	3	3	0	0.32505579202552326	44.233445	46.28929	2.0561487777777776	time.process_time()
1	ss1338	Female	20	True	True	False	3,9	Yes - corrected-to-normal vision	0	5	1	3	1	0.36989250002079643	46.289555	48.345651	2.0561487777777776	time.process_time()
1	ss1338	Female	20	True	True	False	3,9	Yes - corrected-to-normal vision	0	6	6	3	1	0.5268500419915654	48.345934	50.401575	2.0561487777777776	time.process_time()
1	ss1338	Female	20	True	True	False	3,9	Yes - corrected-to-normal vision	0	7	6	3	1	0.4374865830177441	50.401846	52.457671	2.0561487777777776	time.process_time()
1	ss1338	Female	20	True	True	False	3,9	Yes - corrected-to-normal vision	0	8	2	3	1	0.4284144999983255	52.458002	54.513749	2.0561487777777776	time.process_time()
1	ss1338	Female	20	True	True	False	3,9	Yes - corrected-to-normal vision	0	9	7	3	1	0.4461260410025716	54.51402	56.570174	2.0561487777777776	time.process_time()
1	ss1338	Female	20	True	True	False	3,9	Yes - corrected-to-normal vision	0	10	1	3	1	0.5670121669827495	56.570449	58.626603	2.0561487777777776	time.process_time()
1	ss1338	Female	20	True	True	False	3,9	Yes - corrected-to-normal vision	0	11	9	3	1	0.4159230410004966	58.62687	60.681822	2.0561487777777776	time.process_time()
1	ss1338	Female	20	True	True	False	3,9	Yes - corrected-to-normal vision	0	12	7	3	1	0.3804447499860544	60.682107	62.737905	2.0561487777777776	time.process_time()
1	ss1338	Female	20	True	True	False	3,9	Yes - corrected-to-normal vision	0	13	8	3	1	0.36225320800440386	62.738231	64.793975	2.0561487777777776	time.process_time()
1	ss1338	Female	20	True	True	False	3,9	Yes - corrected-to-normal vision	0	14	2	3	1	0.3624364580027759	64.794257	66.849753	2.0561487777777776	time.process_time()
1	ss1338	Female	20	True	True	False	3,9	Yes - corrected-to-normal vision	0	15	5	3	1	0.41111054201610386	66.850048	68.906392	2.0561487777777776	time.process_time()
1	ss1338	Female	20	True	True	False	3,9	Yes - corrected-to-normal vision	0	16	4	3	1	0.32904095799312927	68.906676	70.962476	2.0561487777777776	time.process_time()
1	ss1338	Female	20	True	True	False	3,9	Yes - corrected-to-normal vision	0	17	9	3	1	0.41690579199348576	70.962765	73.018295	2.0561487777777776	time.process_time()
1	ss1338	Female	20	True	True	False	3,9	Yes - corrected-to-normal vision	0	18	8	3	1	0.41931870800908655	73.018572	75.073637	2.0561487777777776	time.process_time()
1	ss1338	Female	20	True	True	False	3,9	Yes - corrected-to-normal vision	1	1	9	3	1	0.635217333008768	83.207042	84.36125	1.1546549222222222	time.process_time()
1	ss1338	Female	20	True	True	False	3,9	Yes - corrected-to-normal vision	1	2	3	3	1	NA	84.361488	85.5163	1.1546549222222222	time.process_time()
1	ss1338	Female	20	True	True	False	3,9	Yes - corrected-to-normal vision	1	3	1	3	1	0.6476056249812245	85.516538	86.671803	1.1546549222222222	time.process_time()
1	ss1338	Female	20	True	True	False	3,9	Yes - corrected-to-normal vision	1	4	2	3	1	0.7111504169879481	86.672055	87.826563	1.1546549222222222	time.process_time()
1	ss1338	Female	20	True	True	False	3,9	Yes - corrected-to-normal vision	1	5	6	3	1	0.3890624170016963	87.826799	88.981382	1.1546549222222222	time.process_time()
1	ss1338	Female	20	True	True	False	3,9	Yes - corrected-to-normal vision	1	6	9	3	1	0.27964258298743516	88.981622	90.136339	1.1546549222222222	time.process_time()
1	ss1338	Female	20	True	True	False	3,9	Yes - corrected-to-normal vision	1	7	3	3	0	0.3034009170078207	90.136584	91.290471	1.1546549222222222	time.process_time()
1	ss1338	Female	20	True	True	False	3,9	Yes - corrected-to-normal vision	1	8	2	3	1	0.3181996670027729	91.290708	92.446008	1.1546549222222222	time.process_time()
1	ss1338	Female	20	True	True	False	3,9	Yes - corrected-to-normal vision	1	9	5	3	1	0.29231462499592453	92.446298	93.599883	1.1546549222222222	time.process_time()
1	ss1338	Female	20	True	True	False	3,9	Yes - corrected-to-normal vision	1	10	7	3	1	0.29467187501722947	93.600122	94.754764	1.1546549222222222	time.process_time()
1	ss1338	Female	20	True	True	False	3,9	Yes - corrected-to-normal vision	1	11	8	3	1	0.29746283299755305	94.755005	95.909974	1.1546549222222222	time.process_time()
1	ss1338	Female	20	True	True	False	3,9	Yes - corrected-to-normal vision	1	12	1	3	1	0.3653874169976916	95.910215	97.064067	1.1546549222222222	time.process_time()
1	ss1338	Female	20	True	True	False	3,9	Yes - corrected-to-normal vision	1	13	4	3	1	0.35638433299027383	97.064307	98.219664	1.1546549222222222	time.process_time()
1	ss1338	Female	20	True	True	False	3,9	Yes - corrected-to-normal vision	1	14	2	3	1	0.285680750006577	98.219917	99.374081	1.1546549222222222	time.process_time()
1	ss1338	Female	20	True	True	False	3,9	Yes - corrected-to-normal vision	1	15	6	3	1	0.3075525829917751	99.37432	100.52826	1.1546549222222222	time.process_time()
1	ss1338	Female	20	True	True	False	3,9	Yes - corrected-to-normal vision	1	16	7	3	1	0.28401983398362063	100.528573	101.683167	1.1546549222222222	time.process_time()
1	ss1338	Female	20	True	True	False	3,9	Yes - corrected-to-normal vision	1	17	3	3	1	NA	101.683407	102.838648	1.1546549222222222	time.process_time()
1	ss1338	Female	20	True	True	False	3,9	Yes - corrected-to-normal vision	1	18	4	3	1	0.2717113340040669	102.838923	103.993069	1.1546549222222222	time.process_time()
1	ss1338	Female	20	True	True	False	3,9	Yes - corrected-to-normal vision	1	19	6	3	1	0.4222574580053333	103.993321	105.148243	1.1546549222222222	time.process_time()
1	ss1338	Female	20	True	True	False	3,9	Yes - corrected-to-normal vision	1	20	2	3	1	0.38820137502625585	105.148483	106.302	1.1546549222222222	time.process_time()
1	ss1338	Female	20	True	True	False	3,9	Yes - corrected-to-normal vision	1	21	8	3	1	0.3027944999921601	106.302242	107.456088	1.1546549222222222	time.process_time()
1	ss1338	Female	20	True	True	False	3,9	Yes - corrected-to-normal vision	1	22	4	3	1	0.3044080830004532	107.456343	108.610388	1.1546549222222222	time.process_time()
1	ss1338	Female	20	True	True	False	3,9	Yes - corrected-to-normal vision	1	23	5	3	1	0.3531645000039134	108.61063	109.764883	1.1546549222222222	time.process_time()
1	ss1338	Female	20	True	True	False	3,9	Yes - corrected-to-normal vision	1	24	5	3	1	0.3317023749987129	109.765121	110.919774	1.1546549222222222	time.process_time()
1	ss1338	Female	20	True	True	False	3,9	Yes - corrected-to-normal vision	1	25	8	3	1	0.31751066699507646	110.920012	112.074969	1.1546549222222222	time.process_time()
1	ss1338	Female	20	True	True	False	3,9	Yes - corrected-to-normal vision	1	26	3	3	0	0.25309833299252205	112.075256	113.228759	1.1546549222222222	time.process_time()
1	ss1338	Female	20	True	True	False	3,9	Yes - corrected-to-normal vision	1	27	4	3	1	0.316646416002186	113.229001	114.38362	1.1546549222222222	time.process_time()
1	ss1338	Female	20	True	True	False	3,9	Yes - corrected-to-normal vision	1	28	5	3	1	0.2553012080024928	114.38386	115.537931	1.1546549222222222	time.process_time()
1	ss1338	Female	20	True	True	False	3,9	Yes - corrected-to-normal vision	1	29	9	3	1	0.24761554101132788	115.538172	116.692451	1.1546549222222222	time.process_time()
1	ss1338	Female	20	True	True	False	3,9	Yes - corrected-to-normal vision	1	30	7	3	1	0.4346576670068316	116.692693	117.847312	1.1546549222222222	time.process_time()
1	ss1338	Female	20	True	True	False	3,9	Yes - corrected-to-normal vision	1	31	1	3	1	0.3734763329848647	117.847551	119.002391	1.1546549222222222	time.process_time()
1	ss1338	Female	20	True	True	False	3,9	Yes - corrected-to-normal vision	1	32	8	3	1	0.4277255419874564	119.002632	120.156725	1.1546549222222222	time.process_time()
1	ss1338	Female	20	True	True	False	3,9	Yes - corrected-to-normal vision	1	33	7	3	1	0.32749554098700173	120.156966	121.311652	1.1546549222222222	time.process_time()
1	ss1338	Female	20	True	True	False	3,9	Yes - corrected-to-normal vision	1	34	8	3	1	0.3253937080153264	121.311897	122.466187	1.1546549222222222	time.process_time()
1	ss1338	Female	20	True	True	False	3,9	Yes - corrected-to-normal vision	1	35	9	3	1	0.29839841701323166	122.466474	123.619915	1.1546549222222222	time.process_time()
1	ss1338	Female	20	True	True	False	3,9	Yes - corrected-to-normal vision	1	36	5	3	1	0.3094791249895934	123.620152	124.774629	1.1546549222222222	time.process_time()
1	ss1338	Female	20	True	True	False	3,9	Yes - corrected-to-normal vision	1	37	2	3	1	0.4407044579857029	124.774868	125.929068	1.1546549222222222	time.process_time()
1	ss1338	Female	20	True	True	False	3,9	Yes - corrected-to-normal vision	1	38	1	3	1	0.45010012498823926	125.929309	127.083837	1.1546549222222222	time.process_time()
1	ss1338	Female	20	True	True	False	3,9	Yes - corrected-to-normal vision	1	39	4	3	1	0.4433047079946846	127.084076	128.238944	1.1546549222222222	time.process_time()
1	ss1338	Female	20	True	True	False	3,9	Yes - corrected-to-normal vision	1	40	1	3	1	0.5012958330044057	128.239189	129.392988	1.1546549222222222	time.process_time()
1	ss1338	Female	20	True	True	False	3,9	Yes - corrected-to-normal vision	1	41	9	3	1	0.4771551250014454	129.393228	130.547282	1.1546549222222222	time.process_time()
1	ss1338	Female	20	True	True	False	3,9	Yes - corrected-to-normal vision	1	42	6	3	1	0.4552362500107847	130.547519	131.702158	1.1546549222222222	time.process_time()
1	ss1338	Female	20	True	True	False	3,9	Yes - corrected-to-normal vision	1	43	7	3	1	0.5024699159839656	131.702458	132.856776	1.1546549222222222	time.process_time()
1	ss1338	Female	20	True	True	False	3,9	Yes - corrected-to-normal vision	1	44	6	3	1	0.46302004100289196	132.857016	134.011621	1.1546549222222222	time.process_time()
1	ss1338	Female	20	True	True	False	3,9	Yes - corrected-to-normal vision	1	45	3	3	1	NA	134.011863	135.166376	1.1546549222222222	time.process_time()
1	ss1338	Female	20	True	True	False	3,9	Yes - corrected-to-normal vision	1	46	4	3	1	0.26923237499431707	135.166616	136.320457	1.1546549222222222	time.process_time()
1	ss1338	Female	20	True	True	False	3,9	Yes - corrected-to-normal vision	1	47	9	3	1	0.7136607919819653	136.320696	137.475454	1.1546549222222222	time.process_time()
1	ss1338	Female	20	True	True	False	3,9	Yes - corrected-to-normal vision	1	48	2	3	1	0.46639387498726137	137.475697	138.629503	1.1546549222222222	time.process_time()
1	ss1338	Female	20	True	True	False	3,9	Yes - corrected-to-normal vision	1	49	5	3	1	0.3293072500091512	138.629743	139.783764	1.1546549222222222	time.process_time()
1	ss1338	Female	20	True	True	False	3,9	Yes - corrected-to-normal vision	1	50	9	3	1	0.4352411250001751	139.784002	140.938735	1.1546549222222222	time.process_time()
1	ss1338	Female	20	True	True	False	3,9	Yes - corrected-to-normal vision	1	51	8	3	1	0.32429466597386636	140.938979	142.092946	1.1546549222222222	time.process_time()
1	ss1338	Female	20	True	True	False	3,9	Yes - corrected-to-normal vision	1	52	8	3	1	0.5568821670021862	142.093203	143.248015	1.1546549222222222	time.process_time()
1	ss1338	Female	20	True	True	False	3,9	Yes - corrected-to-normal vision	1	53	1	3	1	0.5154340000008233	143.248257	144.402331	1.1546549222222222	time.process_time()
1	ss1338	Female	20	True	True	False	3,9	Yes - corrected-to-normal vision	1	54	7	3	1	0.527179917000467	144.402571	145.556455	1.1546549222222222	time.process_time()
1	ss1338	Female	20	True	True	False	3,9	Yes - corrected-to-normal vision	1	55	3	3	1	NA	145.5567	146.711444	1.1546549222222222	time.process_time()
1	ss1338	Female	20	True	True	False	3,9	Yes - corrected-to-normal vision	1	56	9	3	1	0.26974258400150575	146.711708	147.866775	1.1546549222222222	time.process_time()
1	ss1338	Female	20	True	True	False	3,9	Yes - corrected-to-normal vision	1	57	5	3	1	0.5880705419986043	147.86702	149.0214	1.1546549222222222	time.process_time()
1	ss1338	Female	20	True	True	False	3,9	Yes - corrected-to-normal vision	1	58	1	3	1	0.6615408330108039	149.021638	150.175778	1.1546549222222222	time.process_time()
1	ss1338	Female	20	True	True	False	3,9	Yes - corrected-to-normal vision	1	59	6	3	1	0.5555725829908624	150.176018	151.330638	1.1546549222222222	time.process_time()
1	ss1338	Female	20	True	True	False	3,9	Yes - corrected-to-normal vision	1	60	7	3	1	0.5791081250063144	151.330884	152.485212	1.1546549222222222	time.process_time()
1	ss1338	Female	20	True	True	False	3,9	Yes - corrected-to-normal vision	1	61	1	3	1	0.588766625005519	152.485461	153.640108	1.1546549222222222	time.process_time()
1	ss1338	Female	20	True	True	False	3,9	Yes - corrected-to-normal vision	1	62	6	3	1	0.4942169999994803	153.640348	154.794604	1.1546549222222222	time.process_time()
1	ss1338	Female	20	True	True	False	3,9	Yes - corrected-to-normal vision	1	63	9	3	1	0.5157074999879114	154.794841	155.949448	1.1546549222222222	time.process_time()
1	ss1338	Female	20	True	True	False	3,9	Yes - corrected-to-normal vision	1	64	3	3	1	NA	155.949691	157.104363	1.1546549222222222	time.process_time()
1	ss1338	Female	20	True	True	False	3,9	Yes - corrected-to-normal vision	1	65	8	3	1	0.30702591699082404	157.104597	158.258516	1.1546549222222222	time.process_time()
1	ss1338	Female	20	True	True	False	3,9	Yes - corrected-to-normal vision	1	66	7	3	1	0.6473961249866989	158.258756	159.413613	1.1546549222222222	time.process_time()
1	ss1338	Female	20	True	True	False	3,9	Yes - corrected-to-normal vision	1	67	7	3	1	0.6936920000007376	159.413855	160.569028	1.1546549222222222	time.process_time()
1	ss1338	Female	20	True	True	False	3,9	Yes - corrected-to-normal vision	1	68	2	3	1	0.6364382500178181	160.569356	161.724283	1.1546549222222222	time.process_time()
1	ss1338	Female	20	True	True	False	3,9	Yes - corrected-to-normal vision	1	69	3	3	1	NA	161.724561	162.878633	1.1546549222222222	time.process_time()
1	ss1338	Female	20	True	True	False	3,9	Yes - corrected-to-normal vision	1	70	8	3	1	0.5176539579988457	162.878871	164.032773	1.1546549222222222	time.process_time()
1	ss1338	Female	20	True	True	False	3,9	Yes - corrected-to-normal vision	1	71	3	3	1	NA	164.033018	165.186561	1.1546549222222222	time.process_time()
1	ss1338	Female	20	True	True	False	3,9	Yes - corrected-to-normal vision	1	72	2	3	1	0.3409634999989066	165.186814	166.342081	1.1546549222222222	time.process_time()
1	ss1338	Female	20	True	True	False	3,9	Yes - corrected-to-normal vision	1	73	7	3	1	0.689276167016942	166.342323	167.496592	1.1546549222222222	time.process_time()
1	ss1338	Female	20	True	True	False	3,9	Yes - corrected-to-normal vision	1	74	6	3	1	0.6903864999767393	167.496845	168.65034	1.1546549222222222	time.process_time()
1	ss1338	Female	20	True	True	False	3,9	Yes - corrected-to-normal vision	1	75	2	3	1	0.7108427499770187	168.650579	169.805864	1.1546549222222222	time.process_time()
1	ss1338	Female	20	True	True	False	3,9	Yes - corrected-to-normal vision	1	76	1	3	1	0.5777217499853577	169.806119	170.960212	1.1546549222222222	time.process_time()
1	ss1338	Female	20	True	True	False	3,9	Yes - corrected-to-normal vision	1	77	5	3	1	0.6364409579837229	170.960452	172.114028	1.1546549222222222	time.process_time()
1	ss1338	Female	20	True	True	False	3,9	Yes - corrected-to-normal vision	1	78	1	3	1	0.7934287920070346	172.114288	173.269119	1.1546549222222222	time.process_time()
1	ss1338	Female	20	True	True	False	3,9	Yes - corrected-to-normal vision	1	79	9	3	1	0.7544727079803124	173.269361	174.423296	1.1546549222222222	time.process_time()
1	ss1338	Female	20	True	True	False	3,9	Yes - corrected-to-normal vision	1	80	8	3	1	0.9573821250232868	174.423538	175.578654	1.1546549222222222	time.process_time()
1	ss1338	Female	20	True	True	False	3,9	Yes - corrected-to-normal vision	1	81	5	3	1	0.7900857919885311	175.578895	176.73343	1.1546549222222222	time.process_time()
1	ss1338	Female	20	True	True	False	3,9	Yes - corrected-to-normal vision	1	82	2	3	1	0.7618358329928014	176.73367	177.887925	1.1546549222222222	time.process_time()
1	ss1338	Female	20	True	True	False	3,9	Yes - corrected-to-normal vision	1	83	3	3	1	NA	177.888174	179.042509	1.1546549222222222	time.process_time()
1	ss1338	Female	20	True	True	False	3,9	Yes - corrected-to-normal vision	1	84	6	3	1	0.6473562920000404	179.042741	180.197387	1.1546549222222222	time.process_time()
1	ss1338	Female	20	True	True	False	3,9	Yes - corrected-to-normal vision	1	85	6	3	1	0.6960365420090966	180.197638	181.351496	1.1546549222222222	time.process_time()
1	ss1338	Female	20	True	True	False	3,9	Yes - corrected-to-normal vision	1	86	5	3	1	0.582156958989799	181.351787	182.506544	1.1546549222222222	time.process_time()
1	ss1338	Female	20	True	True	False	3,9	Yes - corrected-to-normal vision	1	87	4	3	1	0.6271938330028206	182.506786	183.661307	1.1546549222222222	time.process_time()
1	ss1338	Female	20	True	True	False	3,9	Yes - corrected-to-normal vision	1	88	4	3	1	0.6523286669980735	183.661551	184.816151	1.1546549222222222	time.process_time()
1	ss1338	Female	20	True	True	False	3,9	Yes - corrected-to-normal vision	1	89	4	3	1	0.6768074579886161	184.816394	185.970847	1.1546549222222222	time.process_time()
1	ss1338	Female	20	True	True	False	3,9	Yes - corrected-to-normal vision	1	90	4	3	1	0.7648461250064429	185.971093	187.125272	1.1546549222222222	time.process_time()
