condition	part_id	part_gender	part_age	instagram	messenger	imessage	screentime	part_normal_vision	block_num	trial_num	number	omit_num	resp_acc	resp_rt	trial_start_time_s	trial_end_time_s	mean_trial_time_s	timing_function
2	LL2000	Male	23	True	True	False	3,12	Yes - normal vision	0	1	9	3	1	0.6759846250060946	47.585125	49.642573	2.0563512777777775	time.process_time()
2	LL2000	Male	23	True	True	False	3,12	Yes - normal vision	0	2	6	3	1	0.5312116249988321	49.642841	51.698765	2.0563512777777775	time.process_time()
2	LL2000	Male	23	True	True	False	3,12	Yes - normal vision	0	3	8	3	1	0.4634589170163963	51.69904	53.754203	2.0563512777777775	time.process_time()
2	LL2000	Male	23	True	True	False	3,12	Yes - normal vision	0	4	3	3	1	NA	53.754494	55.810508	2.0563512777777775	time.process_time()
2	LL2000	Male	23	True	True	False	3,12	Yes - normal vision	0	5	1	3	1	0.5083159590139985	55.810789	57.867888	2.0563512777777775	time.process_time()
2	LL2000	Male	23	True	True	False	3,12	Yes - normal vision	0	6	7	3	1	0.6752900420106016	57.868162	59.923843	2.0563512777777775	time.process_time()
2	LL2000	Male	23	True	True	False	3,12	Yes - normal vision	0	7	5	3	1	0.6597262080176733	59.924144	61.979848	2.0563512777777775	time.process_time()
2	LL2000	Male	23	True	True	False	3,12	Yes - normal vision	0	8	7	3	1	0.7684433329850435	61.980121	64.03648	2.0563512777777775	time.process_time()
2	LL2000	Male	23	True	True	False	3,12	Yes - normal vision	0	9	8	3	1	0.7597283749782946	64.036776	66.092206	2.0563512777777775	time.process_time()
2	LL2000	Male	23	True	True	False	3,12	Yes - normal vision	0	10	1	3	1	0.7173068330157548	66.092529	68.147916	2.0563512777777775	time.process_time()
2	LL2000	Male	23	True	True	False	3,12	Yes - normal vision	0	11	3	3	0	0.8530979999923147	68.148183	70.205065	2.0563512777777775	time.process_time()
2	LL2000	Male	23	True	True	False	3,12	Yes - normal vision	0	12	4	3	1	0.868200708006043	70.205356	72.261713	2.0563512777777775	time.process_time()
2	LL2000	Male	23	True	True	False	3,12	Yes - normal vision	0	13	5	3	1	0.7773240419919603	72.26199	74.317804	2.0563512777777775	time.process_time()
2	LL2000	Male	23	True	True	False	3,12	Yes - normal vision	0	14	2	3	1	0.6346545409760438	74.318074	76.374245	2.0563512777777775	time.process_time()
2	LL2000	Male	23	True	True	False	3,12	Yes - normal vision	0	15	4	3	1	0.7535811660054605	76.374577	78.431073	2.0563512777777775	time.process_time()
2	LL2000	Male	23	True	True	False	3,12	Yes - normal vision	0	16	9	3	1	0.6894397920113988	78.431347	80.486539	2.0563512777777775	time.process_time()
2	LL2000	Male	23	True	True	False	3,12	Yes - normal vision	0	17	2	3	1	0.7210239999985788	80.486815	82.541747	2.0563512777777775	time.process_time()
2	LL2000	Male	23	True	True	False	3,12	Yes - normal vision	0	18	6	3	1	0.6455556249711663	82.542037	84.598566	2.0563512777777775	time.process_time()
2	LL2000	Male	23	True	True	False	3,12	Yes - normal vision	1	1	8	3	1	0.7592182500229683	97.965372	99.120297	1.154609811111111	time.process_time()
2	LL2000	Male	23	True	True	False	3,12	Yes - normal vision	1	2	7	3	1	0.7044733749935403	99.120546	100.27492	1.154609811111111	time.process_time()
2	LL2000	Male	23	True	True	False	3,12	Yes - normal vision	1	3	6	3	1	0.7501030419953167	100.275202	101.429789	1.154609811111111	time.process_time()
2	LL2000	Male	23	True	True	False	3,12	Yes - normal vision	1	4	4	3	1	0.7254634580167476	101.430034	102.583511	1.154609811111111	time.process_time()
2	LL2000	Male	23	True	True	False	3,12	Yes - normal vision	1	5	6	3	1	0.6174409170052968	102.58376	103.738617	1.154609811111111	time.process_time()
2	LL2000	Male	23	True	True	False	3,12	Yes - normal vision	1	6	9	3	1	0.6202340839954559	103.738868	104.893419	1.154609811111111	time.process_time()
2	LL2000	Male	23	True	True	False	3,12	Yes - normal vision	1	7	7	3	1	0.7187813750060741	104.893664	106.047967	1.154609811111111	time.process_time()
2	LL2000	Male	23	True	True	False	3,12	Yes - normal vision	1	8	5	3	1	0.6604869579896331	106.048206	107.203121	1.154609811111111	time.process_time()
2	LL2000	Male	23	True	True	False	3,12	Yes - normal vision	1	9	1	3	1	0.6456378330185544	107.203361	108.357526	1.154609811111111	time.process_time()
2	LL2000	Male	23	True	True	False	3,12	Yes - normal vision	1	10	7	3	1	0.5756440839904826	108.357764	109.512093	1.154609811111111	time.process_time()
2	LL2000	Male	23	True	True	False	3,12	Yes - normal vision	1	11	8	3	1	0.6096344589896034	109.512333	110.667002	1.154609811111111	time.process_time()
2	LL2000	Male	23	True	True	False	3,12	Yes - normal vision	1	12	6	3	1	0.6304309580009431	110.667294	111.82224	1.154609811111111	time.process_time()
2	LL2000	Male	23	True	True	False	3,12	Yes - normal vision	1	13	7	3	1	0.5612639580212999	111.822483	112.975999	1.154609811111111	time.process_time()
2	LL2000	Male	23	True	True	False	3,12	Yes - normal vision	1	14	9	3	1	0.6256024170143064	112.976236	114.130679	1.154609811111111	time.process_time()
2	LL2000	Male	23	True	True	False	3,12	Yes - normal vision	1	15	9	3	1	0.7906420830113348	114.130918	115.285223	1.154609811111111	time.process_time()
2	LL2000	Male	23	True	True	False	3,12	Yes - normal vision	1	16	3	3	1	NA	115.285465	116.439385	1.154609811111111	time.process_time()
2	LL2000	Male	23	True	True	False	3,12	Yes - normal vision	1	17	2	3	1	0.4291467499861028	116.439619	117.594522	1.154609811111111	time.process_time()
2	LL2000	Male	23	True	True	False	3,12	Yes - normal vision	1	18	1	3	1	0.6594653750071302	117.594764	118.748271	1.154609811111111	time.process_time()
2	LL2000	Male	23	True	True	False	3,12	Yes - normal vision	1	19	5	3	1	0.8976684999943245	118.748515	119.902631	1.154609811111111	time.process_time()
2	LL2000	Male	23	True	True	False	3,12	Yes - normal vision	1	20	1	3	1	1.1165935000171885	119.902894	121.057217	1.154609811111111	time.process_time()
2	LL2000	Male	23	True	True	False	3,12	Yes - normal vision	1	21	2	3	1	0.9330306669871788	121.057461	122.211794	1.154609811111111	time.process_time()
2	LL2000	Male	23	True	True	False	3,12	Yes - normal vision	1	22	4	3	1	1.06355895800516	122.212038	123.366126	1.154609811111111	time.process_time()
2	LL2000	Male	23	True	True	False	3,12	Yes - normal vision	1	23	6	3	1	0.7941637079929933	123.366375	124.520411	1.154609811111111	time.process_time()
2	LL2000	Male	23	True	True	False	3,12	Yes - normal vision	1	24	4	3	1	0.7042977079981938	124.520655	125.674715	1.154609811111111	time.process_time()
2	LL2000	Male	23	True	True	False	3,12	Yes - normal vision	1	25	8	3	1	0.7237045410147402	125.674952	126.829929	1.154609811111111	time.process_time()
2	LL2000	Male	23	True	True	False	3,12	Yes - normal vision	1	26	4	3	1	0.9411974999820814	126.830169	127.984713	1.154609811111111	time.process_time()
2	LL2000	Male	23	True	True	False	3,12	Yes - normal vision	1	27	3	3	1	NA	127.984954	129.138961	1.154609811111111	time.process_time()
2	LL2000	Male	23	True	True	False	3,12	Yes - normal vision	1	28	7	3	1	0.4491775000060443	129.139192	130.29373	1.154609811111111	time.process_time()
2	LL2000	Male	23	True	True	False	3,12	Yes - normal vision	1	29	3	3	1	NA	130.294019	131.448051	1.154609811111111	time.process_time()
2	LL2000	Male	23	True	True	False	3,12	Yes - normal vision	1	30	9	3	1	0.611499000020558	131.44828	132.602777	1.154609811111111	time.process_time()
2	LL2000	Male	23	True	True	False	3,12	Yes - normal vision	1	31	8	3	1	0.6746361660188995	132.603018	133.757868	1.154609811111111	time.process_time()
2	LL2000	Male	23	True	True	False	3,12	Yes - normal vision	1	32	9	3	1	0.7421676249941811	133.758129	134.912633	1.154609811111111	time.process_time()
2	LL2000	Male	23	True	True	False	3,12	Yes - normal vision	1	33	4	3	1	0.7281112920027226	134.912869	136.068229	1.154609811111111	time.process_time()
2	LL2000	Male	23	True	True	False	3,12	Yes - normal vision	1	34	2	3	1	0.7824665000080131	136.068483	137.223272	1.154609811111111	time.process_time()
2	LL2000	Male	23	True	True	False	3,12	Yes - normal vision	1	35	1	3	1	0.6883607500058133	137.223516	138.377791	1.154609811111111	time.process_time()
2	LL2000	Male	23	True	True	False	3,12	Yes - normal vision	1	36	2	3	1	0.6705194169771858	138.378029	139.53248	1.154609811111111	time.process_time()
2	LL2000	Male	23	True	True	False	3,12	Yes - normal vision	1	37	1	3	1	0.7557095829979517	139.532719	140.686633	1.154609811111111	time.process_time()
2	LL2000	Male	23	True	True	False	3,12	Yes - normal vision	1	38	5	3	1	0.7494867079949472	140.68688	141.841163	1.154609811111111	time.process_time()
2	LL2000	Male	23	True	True	False	3,12	Yes - normal vision	1	39	5	3	1	0.6584477080032229	141.8414	142.995831	1.154609811111111	time.process_time()
2	LL2000	Male	23	True	True	False	3,12	Yes - normal vision	1	40	3	3	1	NA	142.996071	144.151009	1.154609811111111	time.process_time()
2	LL2000	Male	23	True	True	False	3,12	Yes - normal vision	1	41	2	3	1	0.49968058298691176	144.151245	145.305256	1.154609811111111	time.process_time()
2	LL2000	Male	23	True	True	False	3,12	Yes - normal vision	1	42	3	3	1	NA	145.305493	146.460088	1.154609811111111	time.process_time()
2	LL2000	Male	23	True	True	False	3,12	Yes - normal vision	1	43	8	3	1	0.49613420898094773	146.460318	147.614165	1.154609811111111	time.process_time()
2	LL2000	Male	23	True	True	False	3,12	Yes - normal vision	1	44	6	3	1	0.4822152919950895	147.614401	148.768456	1.154609811111111	time.process_time()
2	LL2000	Male	23	True	True	False	3,12	Yes - normal vision	1	45	5	3	1	0.7589871249801945	148.768697	149.923633	1.154609811111111	time.process_time()
2	LL2000	Male	23	True	True	False	3,12	Yes - normal vision	1	46	8	3	1	0.7462430839950684	149.923936	151.078232	1.154609811111111	time.process_time()
2	LL2000	Male	23	True	True	False	3,12	Yes - normal vision	1	47	1	3	1	0.845297958003357	151.078481	152.233448	1.154609811111111	time.process_time()
2	LL2000	Male	23	True	True	False	3,12	Yes - normal vision	1	48	6	3	1	0.8268569580104668	152.233689	153.388562	1.154609811111111	time.process_time()
2	LL2000	Male	23	True	True	False	3,12	Yes - normal vision	1	49	4	3	1	0.672030583024025	153.388806	154.543116	1.154609811111111	time.process_time()
2	LL2000	Male	23	True	True	False	3,12	Yes - normal vision	1	50	2	3	1	0.6638363749952987	154.543355	155.697811	1.154609811111111	time.process_time()
2	LL2000	Male	23	True	True	False	3,12	Yes - normal vision	1	51	7	3	1	0.6218781660136301	155.698054	156.852928	1.154609811111111	time.process_time()
2	LL2000	Male	23	True	True	False	3,12	Yes - normal vision	1	52	2	3	1	0.5833605419902597	156.853174	158.006621	1.154609811111111	time.process_time()
2	LL2000	Male	23	True	True	False	3,12	Yes - normal vision	1	53	6	3	1	0.655650250002509	158.006862	159.161463	1.154609811111111	time.process_time()
2	LL2000	Male	23	True	True	False	3,12	Yes - normal vision	1	54	9	3	1	0.5244032089831308	159.161703	160.315137	1.154609811111111	time.process_time()
2	LL2000	Male	23	True	True	False	3,12	Yes - normal vision	1	55	9	3	1	0.5118954579811543	160.315377	161.469626	1.154609811111111	time.process_time()
2	LL2000	Male	23	True	True	False	3,12	Yes - normal vision	1	56	5	3	1	0.5812971669947729	161.469868	162.62476	1.154609811111111	time.process_time()
2	LL2000	Male	23	True	True	False	3,12	Yes - normal vision	1	57	2	3	1	0.6295603750040755	162.625001	163.778485	1.154609811111111	time.process_time()
2	LL2000	Male	23	True	True	False	3,12	Yes - normal vision	1	58	9	3	1	0.7208644579804968	163.778722	164.933641	1.154609811111111	time.process_time()
2	LL2000	Male	23	True	True	False	3,12	Yes - normal vision	1	59	1	3	1	0.7565265000157524	164.933881	166.088424	1.154609811111111	time.process_time()
2	LL2000	Male	23	True	True	False	3,12	Yes - normal vision	1	60	7	3	1	0.6049440410279203	166.088668	167.242978	1.154609811111111	time.process_time()
2	LL2000	Male	23	True	True	False	3,12	Yes - normal vision	1	61	5	3	1	0.5602463750110473	167.243222	168.397405	1.154609811111111	time.process_time()
2	LL2000	Male	23	True	True	False	3,12	Yes - normal vision	1	62	6	3	1	0.4886418750102166	168.397651	169.55224	1.154609811111111	time.process_time()
2	LL2000	Male	23	True	True	False	3,12	Yes - normal vision	1	63	1	3	1	0.5538009589945432	169.552526	170.706873	1.154609811111111	time.process_time()
2	LL2000	Male	23	True	True	False	3,12	Yes - normal vision	1	64	5	3	1	0.49763333299779333	170.707123	171.861913	1.154609811111111	time.process_time()
2	LL2000	Male	23	True	True	False	3,12	Yes - normal vision	1	65	4	3	1	0.3662427910021506	171.862154	173.017067	1.154609811111111	time.process_time()
2	LL2000	Male	23	True	True	False	3,12	Yes - normal vision	1	66	6	3	1	0.5081797910097521	173.017308	174.171175	1.154609811111111	time.process_time()
2	LL2000	Male	23	True	True	False	3,12	Yes - normal vision	1	67	8	3	1	0.45338604200514965	174.171413	175.325434	1.154609811111111	time.process_time()
2	LL2000	Male	23	True	True	False	3,12	Yes - normal vision	1	68	3	3	1	NA	175.325671	176.479642	1.154609811111111	time.process_time()
2	LL2000	Male	23	True	True	False	3,12	Yes - normal vision	1	69	5	3	1	0.28769116700277664	176.47989	177.633781	1.154609811111111	time.process_time()
2	LL2000	Male	23	True	True	False	3,12	Yes - normal vision	1	70	6	3	1	0.5172205000126269	177.63402	178.78811	1.154609811111111	time.process_time()
2	LL2000	Male	23	True	True	False	3,12	Yes - normal vision	1	71	9	3	1	0.5494732920196839	178.78835	179.941841	1.154609811111111	time.process_time()
2	LL2000	Male	23	True	True	False	3,12	Yes - normal vision	1	72	3	3	1	NA	179.942106	181.09708	1.154609811111111	time.process_time()
2	LL2000	Male	23	True	True	False	3,12	Yes - normal vision	1	73	8	3	1	0.349242916010553	181.097312	182.251839	1.154609811111111	time.process_time()
2	LL2000	Male	23	True	True	False	3,12	Yes - normal vision	1	74	7	3	1	0.5444807499879971	182.252082	183.40625	1.154609811111111	time.process_time()
2	LL2000	Male	23	True	True	False	3,12	Yes - normal vision	1	75	4	3	1	0.5997257500130218	183.406489	184.560592	1.154609811111111	time.process_time()
2	LL2000	Male	23	True	True	False	3,12	Yes - normal vision	1	76	1	3	1	0.6432326669746544	184.560831	185.715366	1.154609811111111	time.process_time()
2	LL2000	Male	23	True	True	False	3,12	Yes - normal vision	1	77	3	3	1	NA	185.715609	186.869548	1.154609811111111	time.process_time()
2	LL2000	Male	23	True	True	False	3,12	Yes - normal vision	1	78	3	3	1	NA	186.86978	188.023829	1.154609811111111	time.process_time()
2	LL2000	Male	23	True	True	False	3,12	Yes - normal vision	1	79	2	3	1	0.5445550419972278	188.024059	189.178077	1.154609811111111	time.process_time()
2	LL2000	Male	23	True	True	False	3,12	Yes - normal vision	1	80	7	3	1	0.6687723340000957	189.178363	190.332944	1.154609811111111	time.process_time()
2	LL2000	Male	23	True	True	False	3,12	Yes - normal vision	1	81	7	3	0	NA	190.333186	191.48732	1.154609811111111	time.process_time()
2	LL2000	Male	23	True	True	False	3,12	Yes - normal vision	1	82	1	3	1	0.23076325000147335	191.487549	192.641666	1.154609811111111	time.process_time()
2	LL2000	Male	23	True	True	False	3,12	Yes - normal vision	1	83	4	3	1	0.466242541995598	192.641912	193.796011	1.154609811111111	time.process_time()
2	LL2000	Male	23	True	True	False	3,12	Yes - normal vision	1	84	8	3	1	0.6174214579805266	193.796251	194.950737	1.154609811111111	time.process_time()
2	LL2000	Male	23	True	True	False	3,12	Yes - normal vision	1	85	3	3	1	NA	194.950984	196.105413	1.154609811111111	time.process_time()
2	LL2000	Male	23	True	True	False	3,12	Yes - normal vision	1	86	4	3	1	0.36465683300048113	196.105663	197.260275	1.154609811111111	time.process_time()
2	LL2000	Male	23	True	True	False	3,12	Yes - normal vision	1	87	9	3	1	0.5938192089961376	197.260519	198.414697	1.154609811111111	time.process_time()
2	LL2000	Male	23	True	True	False	3,12	Yes - normal vision	1	88	2	3	1	0.5794481250050012	198.41495	199.56955	1.154609811111111	time.process_time()
2	LL2000	Male	23	True	True	False	3,12	Yes - normal vision	1	89	8	3	1	0.6285918339854106	199.569833	200.724524	1.154609811111111	time.process_time()
2	LL2000	Male	23	True	True	False	3,12	Yes - normal vision	1	90	5	3	1	0.6518515000061598	200.724765	201.879582	1.154609811111111	time.process_time()
