condition	part_id	part_gender	part_age	instagram	messenger	imessage	screentime	part_normal_vision	block_num	trial_num	number	omit_num	resp_acc	resp_rt	trial_start_time_s	trial_end_time_s	mean_trial_time_s	timing_function
2	jg5634	Female	23	True	True	False	3,23	Yes - corrected-to-normal vision	0	1	7	3	1	0.657878250000067	44.586921	46.645253	2.0563869444444443	time.process_time()
2	jg5634	Female	23	True	True	False	3,23	Yes - corrected-to-normal vision	0	2	9	3	1	0.3818087090039626	46.645542	48.700632	2.0563869444444443	time.process_time()
2	jg5634	Female	23	True	True	False	3,23	Yes - corrected-to-normal vision	0	3	9	3	1	0.34651737500098534	48.700907	50.757477	2.0563869444444443	time.process_time()
2	jg5634	Female	23	True	True	False	3,23	Yes - corrected-to-normal vision	0	4	8	3	1	0.48160691699013114	50.757758	52.813949	2.0563869444444443	time.process_time()
2	jg5634	Female	23	True	True	False	3,23	Yes - corrected-to-normal vision	0	5	5	3	1	0.39694287499878556	52.814231	54.86933	2.0563869444444443	time.process_time()
2	jg5634	Female	23	True	True	False	3,23	Yes - corrected-to-normal vision	0	6	4	3	1	0.34381154100992717	54.869619	56.925214	2.0563869444444443	time.process_time()
2	jg5634	Female	23	True	True	False	3,23	Yes - corrected-to-normal vision	0	7	7	3	1	0.3848044580081478	56.925492	58.982164	2.0563869444444443	time.process_time()
2	jg5634	Female	23	True	True	False	3,23	Yes - corrected-to-normal vision	0	8	2	3	1	0.3622448749956675	58.982483	61.039306	2.0563869444444443	time.process_time()
2	jg5634	Female	23	True	True	False	3,23	Yes - corrected-to-normal vision	0	9	3	3	1	NA	61.039707	63.09518	2.0563869444444443	time.process_time()
2	jg5634	Female	23	True	True	False	3,23	Yes - corrected-to-normal vision	0	10	4	3	1	0.34865425000316463	63.095494	65.152115	2.0563869444444443	time.process_time()
2	jg5634	Female	23	True	True	False	3,23	Yes - corrected-to-normal vision	0	11	6	3	1	0.35291650000726804	65.152421	67.209096	2.0563869444444443	time.process_time()
2	jg5634	Female	23	True	True	False	3,23	Yes - corrected-to-normal vision	0	12	5	3	1	0.35463325001182966	67.209371	69.265332	2.0563869444444443	time.process_time()
2	jg5634	Female	23	True	True	False	3,23	Yes - corrected-to-normal vision	0	13	2	3	1	0.25845675001619384	69.2656	71.321057	2.0563869444444443	time.process_time()
2	jg5634	Female	23	True	True	False	3,23	Yes - corrected-to-normal vision	0	14	3	3	1	NA	71.321334	73.376773	2.0563869444444443	time.process_time()
2	jg5634	Female	23	True	True	False	3,23	Yes - corrected-to-normal vision	0	15	1	3	1	0.3260841250012163	73.377056	75.432654	2.0563869444444443	time.process_time()
2	jg5634	Female	23	True	True	False	3,23	Yes - corrected-to-normal vision	0	16	8	3	1	0.26732891699066386	75.432933	77.4887	2.0563869444444443	time.process_time()
2	jg5634	Female	23	True	True	False	3,23	Yes - corrected-to-normal vision	0	17	1	3	1	0.34243650001008064	77.488999	79.54476	2.0563869444444443	time.process_time()
2	jg5634	Female	23	True	True	False	3,23	Yes - corrected-to-normal vision	0	18	6	3	1	0.35984350001672283	79.545038	81.601038	2.0563869444444443	time.process_time()
2	jg5634	Female	23	True	True	False	3,23	Yes - corrected-to-normal vision	1	1	4	3	1	0.6649279579869471	90.63526	91.79059	1.1546928444444444	time.process_time()
2	jg5634	Female	23	True	True	False	3,23	Yes - corrected-to-normal vision	1	2	3	3	1	NA	91.790845	92.945317	1.1546928444444444	time.process_time()
2	jg5634	Female	23	True	True	False	3,23	Yes - corrected-to-normal vision	1	3	2	3	1	0.37043999999877997	92.945614	94.099903	1.1546928444444444	time.process_time()
2	jg5634	Female	23	True	True	False	3,23	Yes - corrected-to-normal vision	1	4	2	3	1	0.36501475001568906	94.100157	95.254648	1.1546928444444444	time.process_time()
2	jg5634	Female	23	True	True	False	3,23	Yes - corrected-to-normal vision	1	5	1	3	1	0.3527652499906253	95.254889	96.409061	1.1546928444444444	time.process_time()
2	jg5634	Female	23	True	True	False	3,23	Yes - corrected-to-normal vision	1	6	6	3	1	0.32287595799425617	96.409315	97.563621	1.1546928444444444	time.process_time()
2	jg5634	Female	23	True	True	False	3,23	Yes - corrected-to-normal vision	1	7	7	3	1	0.3347931250173133	97.563866	98.718413	1.1546928444444444	time.process_time()
2	jg5634	Female	23	True	True	False	3,23	Yes - corrected-to-normal vision	1	8	7	3	1	0.37284937500953674	98.718656	99.872951	1.1546928444444444	time.process_time()
2	jg5634	Female	23	True	True	False	3,23	Yes - corrected-to-normal vision	1	9	1	3	1	0.3372528339968994	99.873193	101.027401	1.1546928444444444	time.process_time()
2	jg5634	Female	23	True	True	False	3,23	Yes - corrected-to-normal vision	1	10	9	3	1	0.32815870898775756	101.027641	102.182559	1.1546928444444444	time.process_time()
2	jg5634	Female	23	True	True	False	3,23	Yes - corrected-to-normal vision	1	11	2	3	1	0.34922529198229313	102.182805	103.33681	1.1546928444444444	time.process_time()
2	jg5634	Female	23	True	True	False	3,23	Yes - corrected-to-normal vision	1	12	6	3	1	0.3252589580079075	103.337054	104.491189	1.1546928444444444	time.process_time()
2	jg5634	Female	23	True	True	False	3,23	Yes - corrected-to-normal vision	1	13	3	3	1	NA	104.491432	105.646044	1.1546928444444444	time.process_time()
2	jg5634	Female	23	True	True	False	3,23	Yes - corrected-to-normal vision	1	14	6	3	1	0.33771120800520293	105.646289	106.800218	1.1546928444444444	time.process_time()
2	jg5634	Female	23	True	True	False	3,23	Yes - corrected-to-normal vision	1	15	6	3	1	0.33691949999774806	106.800466	107.955319	1.1546928444444444	time.process_time()
2	jg5634	Female	23	True	True	False	3,23	Yes - corrected-to-normal vision	1	16	1	3	1	0.40158633401733823	107.955562	109.110036	1.1546928444444444	time.process_time()
2	jg5634	Female	23	True	True	False	3,23	Yes - corrected-to-normal vision	1	17	1	3	1	0.3898300409782678	109.110274	110.264921	1.1546928444444444	time.process_time()
2	jg5634	Female	23	True	True	False	3,23	Yes - corrected-to-normal vision	1	18	4	3	1	0.3256267080141697	110.265162	111.419738	1.1546928444444444	time.process_time()
2	jg5634	Female	23	True	True	False	3,23	Yes - corrected-to-normal vision	1	19	5	3	1	0.32306204101769254	111.419976	112.574165	1.1546928444444444	time.process_time()
2	jg5634	Female	23	True	True	False	3,23	Yes - corrected-to-normal vision	1	20	4	3	1	0.28177862500888295	112.574454	113.728773	1.1546928444444444	time.process_time()
2	jg5634	Female	23	True	True	False	3,23	Yes - corrected-to-normal vision	1	21	5	3	1	0.31091700002434663	113.729015	114.883584	1.1546928444444444	time.process_time()
2	jg5634	Female	23	True	True	False	3,23	Yes - corrected-to-normal vision	1	22	5	3	1	0.3293702079972718	114.883823	116.038028	1.1546928444444444	time.process_time()
2	jg5634	Female	23	True	True	False	3,23	Yes - corrected-to-normal vision	1	23	5	3	1	0.27020466700196266	116.038267	117.192605	1.1546928444444444	time.process_time()
2	jg5634	Female	23	True	True	False	3,23	Yes - corrected-to-normal vision	1	24	8	3	1	0.2527223749784753	117.192858	118.347635	1.1546928444444444	time.process_time()
2	jg5634	Female	23	True	True	False	3,23	Yes - corrected-to-normal vision	1	25	8	3	1	0.29677950000041164	118.347877	119.501887	1.1546928444444444	time.process_time()
2	jg5634	Female	23	True	True	False	3,23	Yes - corrected-to-normal vision	1	26	6	3	1	0.30132220801897347	119.502125	120.657051	1.1546928444444444	time.process_time()
2	jg5634	Female	23	True	True	False	3,23	Yes - corrected-to-normal vision	1	27	8	3	1	0.3584112499956973	120.657293	121.811866	1.1546928444444444	time.process_time()
2	jg5634	Female	23	True	True	False	3,23	Yes - corrected-to-normal vision	1	28	7	3	1	0.3325630830076989	121.812104	122.966417	1.1546928444444444	time.process_time()
2	jg5634	Female	23	True	True	False	3,23	Yes - corrected-to-normal vision	1	29	4	3	1	0.28011979200528003	122.966678	124.121287	1.1546928444444444	time.process_time()
2	jg5634	Female	23	True	True	False	3,23	Yes - corrected-to-normal vision	1	30	9	3	1	0.3793729580065701	124.121525	125.276427	1.1546928444444444	time.process_time()
2	jg5634	Female	23	True	True	False	3,23	Yes - corrected-to-normal vision	1	31	9	3	1	0.2910402909910772	125.276683	126.430477	1.1546928444444444	time.process_time()
2	jg5634	Female	23	True	True	False	3,23	Yes - corrected-to-normal vision	1	32	5	3	1	0.1937990830047056	126.430717	127.585492	1.1546928444444444	time.process_time()
2	jg5634	Female	23	True	True	False	3,23	Yes - corrected-to-normal vision	1	33	3	3	0	0.13061029199161567	127.585736	128.740856	1.1546928444444444	time.process_time()
2	jg5634	Female	23	True	True	False	3,23	Yes - corrected-to-normal vision	1	34	3	3	0	0.41103358400869183	128.741107	129.895451	1.1546928444444444	time.process_time()
2	jg5634	Female	23	True	True	False	3,23	Yes - corrected-to-normal vision	1	35	2	3	0	NA	129.895693	131.049962	1.1546928444444444	time.process_time()
2	jg5634	Female	23	True	True	False	3,23	Yes - corrected-to-normal vision	1	36	1	3	1	0.29670720800640993	131.050192	132.204474	1.1546928444444444	time.process_time()
2	jg5634	Female	23	True	True	False	3,23	Yes - corrected-to-normal vision	1	37	8	3	1	0.3318740410031751	132.204765	133.359377	1.1546928444444444	time.process_time()
2	jg5634	Female	23	True	True	False	3,23	Yes - corrected-to-normal vision	1	38	8	3	1	0.31641475000651553	133.359618	134.514504	1.1546928444444444	time.process_time()
2	jg5634	Female	23	True	True	False	3,23	Yes - corrected-to-normal vision	1	39	7	3	1	0.35216208299971186	134.514746	135.668811	1.1546928444444444	time.process_time()
2	jg5634	Female	23	True	True	False	3,23	Yes - corrected-to-normal vision	1	40	3	3	1	NA	135.669048	136.823792	1.1546928444444444	time.process_time()
2	jg5634	Female	23	True	True	False	3,23	Yes - corrected-to-normal vision	1	41	9	3	1	0.3182412500027567	136.824045	137.979196	1.1546928444444444	time.process_time()
2	jg5634	Female	23	True	True	False	3,23	Yes - corrected-to-normal vision	1	42	4	3	1	0.30188737498247065	137.979441	139.133067	1.1546928444444444	time.process_time()
2	jg5634	Female	23	True	True	False	3,23	Yes - corrected-to-normal vision	1	43	9	3	1	0.2984176670142915	139.133308	140.288215	1.1546928444444444	time.process_time()
2	jg5634	Female	23	True	True	False	3,23	Yes - corrected-to-normal vision	1	44	7	3	1	0.31691029100329615	140.288462	141.443059	1.1546928444444444	time.process_time()
2	jg5634	Female	23	True	True	False	3,23	Yes - corrected-to-normal vision	1	45	2	3	1	0.3034267920011189	141.443318	142.5975	1.1546928444444444	time.process_time()
2	jg5634	Female	23	True	True	False	3,23	Yes - corrected-to-normal vision	1	46	3	3	1	NA	142.597802	143.752409	1.1546928444444444	time.process_time()
2	jg5634	Female	23	True	True	False	3,23	Yes - corrected-to-normal vision	1	47	8	3	1	0.23995104202185757	143.752648	144.906816	1.1546928444444444	time.process_time()
2	jg5634	Female	23	True	True	False	3,23	Yes - corrected-to-normal vision	1	48	5	3	1	0.3125222920207307	144.907078	146.061424	1.1546928444444444	time.process_time()
2	jg5634	Female	23	True	True	False	3,23	Yes - corrected-to-normal vision	1	49	7	3	1	0.30242395799723454	146.061668	147.21653	1.1546928444444444	time.process_time()
2	jg5634	Female	23	True	True	False	3,23	Yes - corrected-to-normal vision	1	50	4	3	1	0.30891074999817647	147.216778	148.371096	1.1546928444444444	time.process_time()
2	jg5634	Female	23	True	True	False	3,23	Yes - corrected-to-normal vision	1	51	3	3	1	NA	148.37134	149.525188	1.1546928444444444	time.process_time()
2	jg5634	Female	23	True	True	False	3,23	Yes - corrected-to-normal vision	1	52	6	3	1	0.2647761660045944	149.525424	150.680115	1.1546928444444444	time.process_time()
2	jg5634	Female	23	True	True	False	3,23	Yes - corrected-to-normal vision	1	53	2	3	1	0.3181962500093505	150.680359	151.834696	1.1546928444444444	time.process_time()
2	jg5634	Female	23	True	True	False	3,23	Yes - corrected-to-normal vision	1	54	8	3	1	0.29391408400260843	151.834938	152.989031	1.1546928444444444	time.process_time()
2	jg5634	Female	23	True	True	False	3,23	Yes - corrected-to-normal vision	1	55	6	3	1	0.32260787501581945	152.989276	154.143834	1.1546928444444444	time.process_time()
2	jg5634	Female	23	True	True	False	3,23	Yes - corrected-to-normal vision	1	56	5	3	1	0.2821135830017738	154.14408	155.298386	1.1546928444444444	time.process_time()
2	jg5634	Female	23	True	True	False	3,23	Yes - corrected-to-normal vision	1	57	1	3	1	0.27289545800886117	155.298634	156.45352	1.1546928444444444	time.process_time()
2	jg5634	Female	23	True	True	False	3,23	Yes - corrected-to-normal vision	1	58	9	3	1	0.33524983300594613	156.453765	157.607863	1.1546928444444444	time.process_time()
2	jg5634	Female	23	True	True	False	3,23	Yes - corrected-to-normal vision	1	59	7	3	1	0.36022583398153074	157.608109	158.762489	1.1546928444444444	time.process_time()
2	jg5634	Female	23	True	True	False	3,23	Yes - corrected-to-normal vision	1	60	1	3	1	0.3434978330042213	158.762738	159.91735	1.1546928444444444	time.process_time()
2	jg5634	Female	23	True	True	False	3,23	Yes - corrected-to-normal vision	1	61	6	3	1	0.3415177910064813	159.917592	161.071856	1.1546928444444444	time.process_time()
2	jg5634	Female	23	True	True	False	3,23	Yes - corrected-to-normal vision	1	62	6	3	1	0.291829333989881	161.0721	162.226609	1.1546928444444444	time.process_time()
2	jg5634	Female	23	True	True	False	3,23	Yes - corrected-to-normal vision	1	63	8	3	1	0.2928934579831548	162.226875	163.381822	1.1546928444444444	time.process_time()
2	jg5634	Female	23	True	True	False	3,23	Yes - corrected-to-normal vision	1	64	3	3	1	NA	163.382063	164.535639	1.1546928444444444	time.process_time()
2	jg5634	Female	23	True	True	False	3,23	Yes - corrected-to-normal vision	1	65	8	3	1	0.3213554579997435	164.535871	165.691022	1.1546928444444444	time.process_time()
2	jg5634	Female	23	True	True	False	3,23	Yes - corrected-to-normal vision	1	66	2	3	1	0.35371279198443517	165.691264	166.845868	1.1546928444444444	time.process_time()
2	jg5634	Female	23	True	True	False	3,23	Yes - corrected-to-normal vision	1	67	9	3	1	0.2915760410251096	166.846119	168.000383	1.1546928444444444	time.process_time()
2	jg5634	Female	23	True	True	False	3,23	Yes - corrected-to-normal vision	1	68	6	3	1	0.3485413749876898	168.000627	169.155119	1.1546928444444444	time.process_time()
2	jg5634	Female	23	True	True	False	3,23	Yes - corrected-to-normal vision	1	69	5	3	1	0.301809000025969	169.155363	170.310185	1.1546928444444444	time.process_time()
2	jg5634	Female	23	True	True	False	3,23	Yes - corrected-to-normal vision	1	70	2	3	1	0.39940816699527204	170.310431	171.464376	1.1546928444444444	time.process_time()
2	jg5634	Female	23	True	True	False	3,23	Yes - corrected-to-normal vision	1	71	2	3	1	0.3370647080009803	171.46462	172.619521	1.1546928444444444	time.process_time()
2	jg5634	Female	23	True	True	False	3,23	Yes - corrected-to-normal vision	1	72	4	3	1	0.30348995901294984	172.619765	173.77431	1.1546928444444444	time.process_time()
2	jg5634	Female	23	True	True	False	3,23	Yes - corrected-to-normal vision	1	73	9	3	1	0.30785133299650624	173.774553	174.928399	1.1546928444444444	time.process_time()
2	jg5634	Female	23	True	True	False	3,23	Yes - corrected-to-normal vision	1	74	9	3	1	0.2671502080047503	174.928639	176.083438	1.1546928444444444	time.process_time()
2	jg5634	Female	23	True	True	False	3,23	Yes - corrected-to-normal vision	1	75	1	3	1	0.4620889170037117	176.083686	177.237625	1.1546928444444444	time.process_time()
2	jg5634	Female	23	True	True	False	3,23	Yes - corrected-to-normal vision	1	76	9	3	1	0.31354945799103007	177.23787	178.391866	1.1546928444444444	time.process_time()
2	jg5634	Female	23	True	True	False	3,23	Yes - corrected-to-normal vision	1	77	5	3	1	0.3492242500069551	178.392104	179.546936	1.1546928444444444	time.process_time()
2	jg5634	Female	23	True	True	False	3,23	Yes - corrected-to-normal vision	1	78	7	3	1	0.33404637497733347	179.547177	180.700723	1.1546928444444444	time.process_time()
2	jg5634	Female	23	True	True	False	3,23	Yes - corrected-to-normal vision	1	79	3	3	0	0.2710702079930343	180.700968	181.855548	1.1546928444444444	time.process_time()
2	jg5634	Female	23	True	True	False	3,23	Yes - corrected-to-normal vision	1	80	7	3	1	0.37993216601898894	181.855811	183.010727	1.1546928444444444	time.process_time()
2	jg5634	Female	23	True	True	False	3,23	Yes - corrected-to-normal vision	1	81	5	3	1	0.4028957499831449	183.010971	184.165249	1.1546928444444444	time.process_time()
2	jg5634	Female	23	True	True	False	3,23	Yes - corrected-to-normal vision	1	82	4	3	1	0.38759304099949077	184.165485	185.320399	1.1546928444444444	time.process_time()
2	jg5634	Female	23	True	True	False	3,23	Yes - corrected-to-normal vision	1	83	7	3	1	0.3624028339982033	185.320641	186.475082	1.1546928444444444	time.process_time()
2	jg5634	Female	23	True	True	False	3,23	Yes - corrected-to-normal vision	1	84	1	3	1	0.39262324999435805	186.47533	187.629603	1.1546928444444444	time.process_time()
2	jg5634	Female	23	True	True	False	3,23	Yes - corrected-to-normal vision	1	85	8	3	1	0.35200937499757856	187.629845	188.7839	1.1546928444444444	time.process_time()
2	jg5634	Female	23	True	True	False	3,23	Yes - corrected-to-normal vision	1	86	3	3	1	NA	188.78414	189.93779	1.1546928444444444	time.process_time()
2	jg5634	Female	23	True	True	False	3,23	Yes - corrected-to-normal vision	1	87	2	3	1	0.2752555000188295	189.938026	191.092281	1.1546928444444444	time.process_time()
2	jg5634	Female	23	True	True	False	3,23	Yes - corrected-to-normal vision	1	88	1	3	1	0.296705209009815	191.092532	192.247133	1.1546928444444444	time.process_time()
2	jg5634	Female	23	True	True	False	3,23	Yes - corrected-to-normal vision	1	89	4	3	1	0.3301797500171233	192.247447	193.402221	1.1546928444444444	time.process_time()
2	jg5634	Female	23	True	True	False	3,23	Yes - corrected-to-normal vision	1	90	4	3	1	0.29746666699065827	193.402461	194.556895	1.1546928444444444	time.process_time()
