condition	part_id	part_gender	part_age	instagram	messenger	imessage	screentime	part_normal_vision	block_num	trial_num	number	omit_num	resp_acc	resp_rt	trial_start_time_s	trial_end_time_s	mean_trial_time_s	timing_function
1	df5792	Female	22	True	True	True	4,2	No	0	1	5	3	0	NA	36.872812	38.928497	2.0561587777777772	time.process_time()
1	df5792	Female	22	True	True	True	4,2	No	0	2	2	3	1	0.5238208749797195	38.92878	40.985656	2.0561587777777772	time.process_time()
1	df5792	Female	22	True	True	True	4,2	No	0	3	9	3	1	0.3784032920084428	40.985946	43.042343	2.0561587777777772	time.process_time()
1	df5792	Female	22	True	True	True	4,2	No	0	4	3	3	0	0.5045115830143914	43.042615	45.098327	2.0561587777777772	time.process_time()
1	df5792	Female	22	True	True	True	4,2	No	0	5	7	3	1	0.34770474999095313	45.098607	47.154142	2.0561587777777772	time.process_time()
1	df5792	Female	22	True	True	True	4,2	No	0	6	6	3	1	0.44365783300600015	47.15448	49.210288	2.0561587777777772	time.process_time()
1	df5792	Female	22	True	True	True	4,2	No	0	7	4	3	1	0.400108415982686	49.210563	51.266248	2.0561587777777772	time.process_time()
1	df5792	Female	22	True	True	True	4,2	No	0	8	1	3	1	0.3618663340166677	51.266522	53.322111	2.0561587777777772	time.process_time()
1	df5792	Female	22	True	True	True	4,2	No	0	9	4	3	1	0.3740805840061512	53.322381	55.377962	2.0561587777777772	time.process_time()
1	df5792	Female	22	True	True	True	4,2	No	0	10	3	3	1	NA	55.378261	57.433962	2.0561587777777772	time.process_time()
1	df5792	Female	22	True	True	True	4,2	No	0	11	1	3	1	0.52904112500255	57.434237	59.49008	2.0561587777777772	time.process_time()
1	df5792	Female	22	True	True	True	4,2	No	0	12	9	3	1	0.3932289590011351	59.490353	61.546112	2.0561587777777772	time.process_time()
1	df5792	Female	22	True	True	True	4,2	No	0	13	6	3	1	0.3486320830124896	61.546412	63.602394	2.0561587777777772	time.process_time()
1	df5792	Female	22	True	True	True	4,2	No	0	14	5	3	1	0.4800933329970576	63.602687	65.658412	2.0561587777777772	time.process_time()
1	df5792	Female	22	True	True	True	4,2	No	0	15	2	3	1	0.4102737089851871	65.658687	67.714138	2.0561587777777772	time.process_time()
1	df5792	Female	22	True	True	True	4,2	No	0	16	8	3	1	0.38209725002525374	67.714412	69.770781	2.0561587777777772	time.process_time()
1	df5792	Female	22	True	True	True	4,2	No	0	17	7	3	1	0.4292532080144156	69.771053	71.827317	2.0561587777777772	time.process_time()
1	df5792	Female	22	True	True	True	4,2	No	0	18	8	3	1	0.4421507500228472	71.827599	73.882785	2.0561587777777772	time.process_time()
1	df5792	Female	22	True	True	True	4,2	No	1	1	8	3	1	0.6547116660221945	81.701661	82.855959	1.1546249333333334	time.process_time()
1	df5792	Female	22	True	True	True	4,2	No	1	2	8	3	1	0.5966770419909153	82.856204	84.010495	1.1546249333333334	time.process_time()
1	df5792	Female	22	True	True	True	4,2	No	1	3	2	3	1	0.5769517500011716	84.010734	85.165284	1.1546249333333334	time.process_time()
1	df5792	Female	22	True	True	True	4,2	No	1	4	8	3	1	0.4728160419908818	85.165529	86.319851	1.1546249333333334	time.process_time()
1	df5792	Female	22	True	True	True	4,2	No	1	5	3	3	1	NA	86.320091	87.474499	1.1546249333333334	time.process_time()
1	df5792	Female	22	True	True	True	4,2	No	1	6	4	3	1	0.5250634579861071	87.47479	88.629616	1.1546249333333334	time.process_time()
1	df5792	Female	22	True	True	True	4,2	No	1	7	3	3	1	NA	88.629862	89.783491	1.1546249333333334	time.process_time()
1	df5792	Female	22	True	True	True	4,2	No	1	8	1	3	1	0.36130104199401103	89.783734	90.938173	1.1546249333333334	time.process_time()
1	df5792	Female	22	True	True	True	4,2	No	1	9	2	3	1	0.48275399999693036	90.938416	92.093339	1.1546249333333334	time.process_time()
1	df5792	Female	22	True	True	True	4,2	No	1	10	2	3	1	0.482260667020455	92.093584	93.247354	1.1546249333333334	time.process_time()
1	df5792	Female	22	True	True	True	4,2	No	1	11	6	3	1	0.4544822500029113	93.247597	94.402471	1.1546249333333334	time.process_time()
1	df5792	Female	22	True	True	True	4,2	No	1	12	7	3	1	0.40669208401232027	94.402718	95.556199	1.1546249333333334	time.process_time()
1	df5792	Female	22	True	True	True	4,2	No	1	13	9	3	1	0.45080620801309124	95.556442	96.709929	1.1546249333333334	time.process_time()
1	df5792	Female	22	True	True	True	4,2	No	1	14	5	3	1	0.512695374985924	96.710169	97.864714	1.1546249333333334	time.process_time()
1	df5792	Female	22	True	True	True	4,2	No	1	15	7	3	1	0.5098863750172313	97.86497	99.019219	1.1546249333333334	time.process_time()
1	df5792	Female	22	True	True	True	4,2	No	1	16	4	3	1	0.43099783299840055	99.019461	100.174295	1.1546249333333334	time.process_time()
1	df5792	Female	22	True	True	True	4,2	No	1	17	9	3	1	0.47046299997600727	100.174539	101.329465	1.1546249333333334	time.process_time()
1	df5792	Female	22	True	True	True	4,2	No	1	18	2	3	1	0.49769279098836705	101.32971	102.483614	1.1546249333333334	time.process_time()
1	df5792	Female	22	True	True	True	4,2	No	1	19	7	3	1	0.4148152499983553	102.483856	103.638913	1.1546249333333334	time.process_time()
1	df5792	Female	22	True	True	True	4,2	No	1	20	7	3	1	0.4947412500041537	103.639162	104.793514	1.1546249333333334	time.process_time()
1	df5792	Female	22	True	True	True	4,2	No	1	21	1	3	1	0.40914183302083984	104.793759	105.948014	1.1546249333333334	time.process_time()
1	df5792	Female	22	True	True	True	4,2	No	1	22	5	3	1	0.388280749990372	105.948255	107.102826	1.1546249333333334	time.process_time()
1	df5792	Female	22	True	True	True	4,2	No	1	23	5	3	1	0.44159983401186764	107.103119	108.257431	1.1546249333333334	time.process_time()
1	df5792	Female	22	True	True	True	4,2	No	1	24	4	3	1	0.5254193750151899	108.257674	109.411972	1.1546249333333334	time.process_time()
1	df5792	Female	22	True	True	True	4,2	No	1	25	6	3	1	0.5663852909929119	109.412212	110.566286	1.1546249333333334	time.process_time()
1	df5792	Female	22	True	True	True	4,2	No	1	26	9	3	1	0.5252747499907855	110.566527	111.720796	1.1546249333333334	time.process_time()
1	df5792	Female	22	True	True	True	4,2	No	1	27	2	3	1	0.5461281669849996	111.721109	112.875837	1.1546249333333334	time.process_time()
1	df5792	Female	22	True	True	True	4,2	No	1	28	1	3	1	0.5341480420029256	112.876083	114.030849	1.1546249333333334	time.process_time()
1	df5792	Female	22	True	True	True	4,2	No	1	29	9	3	1	0.5533322500123177	114.031093	115.184636	1.1546249333333334	time.process_time()
1	df5792	Female	22	True	True	True	4,2	No	1	30	1	3	1	0.5126462090120185	115.184875	116.339265	1.1546249333333334	time.process_time()
1	df5792	Female	22	True	True	True	4,2	No	1	31	8	3	1	0.4934073750046082	116.339505	117.494777	1.1546249333333334	time.process_time()
1	df5792	Female	22	True	True	True	4,2	No	1	32	6	3	1	0.5072468750004191	117.495059	118.649122	1.1546249333333334	time.process_time()
1	df5792	Female	22	True	True	True	4,2	No	1	33	3	3	1	NA	118.649389	119.80383	1.1546249333333334	time.process_time()
1	df5792	Female	22	True	True	True	4,2	No	1	34	5	3	1	0.5173241249867715	119.804067	120.958875	1.1546249333333334	time.process_time()
1	df5792	Female	22	True	True	True	4,2	No	1	35	6	3	1	0.5727763329923619	120.959119	122.113033	1.1546249333333334	time.process_time()
1	df5792	Female	22	True	True	True	4,2	No	1	36	9	3	1	0.4802231670182664	122.113275	123.268136	1.1546249333333334	time.process_time()
1	df5792	Female	22	True	True	True	4,2	No	1	37	8	3	1	0.5061085830093361	123.268383	124.421791	1.1546249333333334	time.process_time()
1	df5792	Female	22	True	True	True	4,2	No	1	38	1	3	1	0.5281835409987252	124.422033	125.576135	1.1546249333333334	time.process_time()
1	df5792	Female	22	True	True	True	4,2	No	1	39	4	3	1	0.44088329197256826	125.576379	126.731004	1.1546249333333334	time.process_time()
1	df5792	Female	22	True	True	True	4,2	No	1	40	5	3	1	0.45684716702089645	126.731304	127.885148	1.1546249333333334	time.process_time()
1	df5792	Female	22	True	True	True	4,2	No	1	41	3	3	1	NA	127.885391	129.040223	1.1546249333333334	time.process_time()
1	df5792	Female	22	True	True	True	4,2	No	1	42	6	3	1	0.48071987499133684	129.040457	130.194913	1.1546249333333334	time.process_time()
1	df5792	Female	22	True	True	True	4,2	No	1	43	3	3	1	NA	130.195156	131.349231	1.1546249333333334	time.process_time()
1	df5792	Female	22	True	True	True	4,2	No	1	44	7	3	1	0.461930499994196	131.349467	132.504017	1.1546249333333334	time.process_time()
1	df5792	Female	22	True	True	True	4,2	No	1	45	4	3	1	0.5000760839902796	132.50426	133.658823	1.1546249333333334	time.process_time()
1	df5792	Female	22	True	True	True	4,2	No	1	46	7	3	1	0.48835304199019447	133.659096	134.81349	1.1546249333333334	time.process_time()
1	df5792	Female	22	True	True	True	4,2	No	1	47	4	3	1	0.5678922919905744	134.813738	135.968277	1.1546249333333334	time.process_time()
1	df5792	Female	22	True	True	True	4,2	No	1	48	3	3	1	NA	135.968526	137.122743	1.1546249333333334	time.process_time()
1	df5792	Female	22	True	True	True	4,2	No	1	49	8	3	1	0.3517616660101339	137.12301	138.277703	1.1546249333333334	time.process_time()
1	df5792	Female	22	True	True	True	4,2	No	1	50	9	3	1	0.5920178330270573	138.277948	139.432151	1.1546249333333334	time.process_time()
1	df5792	Female	22	True	True	True	4,2	No	1	51	9	3	1	0.5365289589972235	139.432396	140.586193	1.1546249333333334	time.process_time()
1	df5792	Female	22	True	True	True	4,2	No	1	52	2	3	1	0.5592421250184998	140.586443	141.740814	1.1546249333333334	time.process_time()
1	df5792	Female	22	True	True	True	4,2	No	1	53	6	3	1	0.5765402090037242	141.741058	142.895551	1.1546249333333334	time.process_time()
1	df5792	Female	22	True	True	True	4,2	No	1	54	7	3	1	0.5039718329790048	142.895796	144.050045	1.1546249333333334	time.process_time()
1	df5792	Female	22	True	True	True	4,2	No	1	55	5	3	1	0.4833295000134967	144.050287	145.204801	1.1546249333333334	time.process_time()
1	df5792	Female	22	True	True	True	4,2	No	1	56	6	3	1	0.4558165420021396	145.205046	146.360298	1.1546249333333334	time.process_time()
1	df5792	Female	22	True	True	True	4,2	No	1	57	2	3	1	0.5566935839888174	146.360579	147.514162	1.1546249333333334	time.process_time()
1	df5792	Female	22	True	True	True	4,2	No	1	58	8	3	1	0.5281167089997325	147.514403	148.669011	1.1546249333333334	time.process_time()
1	df5792	Female	22	True	True	True	4,2	No	1	59	8	3	1	0.5102103750105016	148.669253	149.824058	1.1546249333333334	time.process_time()
1	df5792	Female	22	True	True	True	4,2	No	1	60	3	3	1	NA	149.824304	150.977501	1.1546249333333334	time.process_time()
1	df5792	Female	22	True	True	True	4,2	No	1	61	3	3	1	NA	150.97774	152.131819	1.1546249333333334	time.process_time()
1	df5792	Female	22	True	True	True	4,2	No	1	62	9	3	1	0.4855987499759067	152.132055	153.287288	1.1546249333333334	time.process_time()
1	df5792	Female	22	True	True	True	4,2	No	1	63	8	3	1	0.5432296249782667	153.28756	154.441659	1.1546249333333334	time.process_time()
1	df5792	Female	22	True	True	True	4,2	No	1	64	1	3	1	0.477279417013051	154.4419	155.59751	1.1546249333333334	time.process_time()
1	df5792	Female	22	True	True	True	4,2	No	1	65	4	3	1	0.47507866701926105	155.597767	156.752078	1.1546249333333334	time.process_time()
1	df5792	Female	22	True	True	True	4,2	No	1	66	6	3	1	0.4883318330103066	156.752363	157.907319	1.1546249333333334	time.process_time()
1	df5792	Female	22	True	True	True	4,2	No	1	67	5	3	1	0.49355795900919475	157.907567	159.062078	1.1546249333333334	time.process_time()
1	df5792	Female	22	True	True	True	4,2	No	1	68	5	3	1	0.46156070797587745	159.062323	160.21658	1.1546249333333334	time.process_time()
1	df5792	Female	22	True	True	True	4,2	No	1	69	4	3	1	0.45310829099616967	160.216824	161.370833	1.1546249333333334	time.process_time()
1	df5792	Female	22	True	True	True	4,2	No	1	70	8	3	1	0.4825482500018552	161.371077	162.525579	1.1546249333333334	time.process_time()
1	df5792	Female	22	True	True	True	4,2	No	1	71	1	3	1	0.541568125016056	162.525824	163.680149	1.1546249333333334	time.process_time()
1	df5792	Female	22	True	True	True	4,2	No	1	72	6	3	1	0.5303609159891494	163.680392	164.835328	1.1546249333333334	time.process_time()
1	df5792	Female	22	True	True	True	4,2	No	1	73	7	3	1	0.446622916002525	164.835573	165.990504	1.1546249333333334	time.process_time()
1	df5792	Female	22	True	True	True	4,2	No	1	74	2	3	1	0.5781541659962386	165.990754	167.144211	1.1546249333333334	time.process_time()
1	df5792	Female	22	True	True	True	4,2	No	1	75	3	3	1	NA	167.144451	168.298758	1.1546249333333334	time.process_time()
1	df5792	Female	22	True	True	True	4,2	No	1	76	2	3	1	0.44850583298830315	168.298993	169.453118	1.1546249333333334	time.process_time()
1	df5792	Female	22	True	True	True	4,2	No	1	77	1	3	1	0.5062788750219624	169.45336	170.607271	1.1546249333333334	time.process_time()
1	df5792	Female	22	True	True	True	4,2	No	1	78	7	3	1	0.4538082079961896	170.607512	171.761577	1.1546249333333334	time.process_time()
1	df5792	Female	22	True	True	True	4,2	No	1	79	2	3	1	0.5186300830100663	171.761821	172.916043	1.1546249333333334	time.process_time()
1	df5792	Female	22	True	True	True	4,2	No	1	80	5	3	1	0.4682329170173034	172.916287	174.070701	1.1546249333333334	time.process_time()
1	df5792	Female	22	True	True	True	4,2	No	1	81	4	3	1	0.4109406669740565	174.070942	175.224978	1.1546249333333334	time.process_time()
1	df5792	Female	22	True	True	True	4,2	No	1	82	1	3	1	0.47098520799772814	175.225242	176.379339	1.1546249333333334	time.process_time()
1	df5792	Female	22	True	True	True	4,2	No	1	83	7	3	1	0.48115029200562276	176.379626	177.533772	1.1546249333333334	time.process_time()
1	df5792	Female	22	True	True	True	4,2	No	1	84	4	3	1	0.47528583399252966	177.534015	178.689202	1.1546249333333334	time.process_time()
1	df5792	Female	22	True	True	True	4,2	No	1	85	9	3	1	0.38198058400303125	178.689456	179.843412	1.1546249333333334	time.process_time()
1	df5792	Female	22	True	True	True	4,2	No	1	86	5	3	1	0.3645175000128802	179.843655	180.998491	1.1546249333333334	time.process_time()
1	df5792	Female	22	True	True	True	4,2	No	1	87	3	3	1	NA	180.998745	182.153024	1.1546249333333334	time.process_time()
1	df5792	Female	22	True	True	True	4,2	No	1	88	9	3	1	0.4226589580066502	182.153274	183.307744	1.1546249333333334	time.process_time()
1	df5792	Female	22	True	True	True	4,2	No	1	89	1	3	1	0.3857512919930741	183.307984	184.46264	1.1546249333333334	time.process_time()
1	df5792	Female	22	True	True	True	4,2	No	1	90	6	3	1	0.5465520420111716	184.462886	185.61719	1.1546249333333334	time.process_time()
