condition	part_id	part_gender	part_age	instagram	messenger	imessage	screentime	part_normal_vision	block_num	trial_num	number	omit_num	resp_acc	resp_rt	trial_start_time_s	trial_end_time_s	mean_trial_time_s	timing_function
3	vm4523	Male	23	False	True	False	2,20	Yes - corrected-to-normal vision	0	1	2	3	1	0.6449602500069886	42.212192	44.269006	2.0562259444444444	time.process_time()
3	vm4523	Male	23	False	True	False	2,20	Yes - corrected-to-normal vision	0	2	3	3	1	NA	44.269274	46.324943	2.0562259444444444	time.process_time()
3	vm4523	Male	23	False	True	False	2,20	Yes - corrected-to-normal vision	0	3	3	3	1	NA	46.325218	48.38158	2.0562259444444444	time.process_time()
3	vm4523	Male	23	False	True	False	2,20	Yes - corrected-to-normal vision	0	4	6	3	1	0.3561054590099957	48.381864	50.437362	2.0562259444444444	time.process_time()
3	vm4523	Male	23	False	True	False	2,20	Yes - corrected-to-normal vision	0	5	7	3	1	0.34774316698894836	50.43765	52.493633	2.0562259444444444	time.process_time()
3	vm4523	Male	23	False	True	False	2,20	Yes - corrected-to-normal vision	0	6	6	3	1	0.3470587079937104	52.49395	54.5498	2.0562259444444444	time.process_time()
3	vm4523	Male	23	False	True	False	2,20	Yes - corrected-to-normal vision	0	7	9	3	1	0.34901554201496765	54.550075	56.605761	2.0562259444444444	time.process_time()
3	vm4523	Male	23	False	True	False	2,20	Yes - corrected-to-normal vision	0	8	1	3	1	0.32377620800980367	56.606029	58.661037	2.0562259444444444	time.process_time()
3	vm4523	Male	23	False	True	False	2,20	Yes - corrected-to-normal vision	0	9	5	3	1	0.3330775829963386	58.66133	60.717703	2.0562259444444444	time.process_time()
3	vm4523	Male	23	False	True	False	2,20	Yes - corrected-to-normal vision	0	10	4	3	1	0.3467776670004241	60.718004	62.774967	2.0562259444444444	time.process_time()
3	vm4523	Male	23	False	True	False	2,20	Yes - corrected-to-normal vision	0	11	8	3	1	0.31709358299849555	62.775257	64.830683	2.0562259444444444	time.process_time()
3	vm4523	Male	23	False	True	False	2,20	Yes - corrected-to-normal vision	0	12	7	3	1	0.3041636669950094	64.830965	66.887113	2.0562259444444444	time.process_time()
3	vm4523	Male	23	False	True	False	2,20	Yes - corrected-to-normal vision	0	13	2	3	1	0.32999312502215616	66.8874	68.943892	2.0562259444444444	time.process_time()
3	vm4523	Male	23	False	True	False	2,20	Yes - corrected-to-normal vision	0	14	5	3	1	0.26483454200206324	68.94416	70.999162	2.0562259444444444	time.process_time()
3	vm4523	Male	23	False	True	False	2,20	Yes - corrected-to-normal vision	0	15	9	3	1	0.3538516249973327	70.999449	73.055119	2.0562259444444444	time.process_time()
3	vm4523	Male	23	False	True	False	2,20	Yes - corrected-to-normal vision	0	16	4	3	1	0.3101120420033112	73.055388	75.11111	2.0562259444444444	time.process_time()
3	vm4523	Male	23	False	True	False	2,20	Yes - corrected-to-normal vision	0	17	8	3	1	0.29007391701452434	75.111377	77.167069	2.0562259444444444	time.process_time()
3	vm4523	Male	23	False	True	False	2,20	Yes - corrected-to-normal vision	0	18	1	3	1	0.3056601250136737	77.16734	79.223306	2.0562259444444444	time.process_time()
3	vm4523	Male	23	False	True	False	2,20	Yes - corrected-to-normal vision	1	1	7	3	1	0.6854449999809731	95.509614	96.664587	1.1546340777777777	time.process_time()
3	vm4523	Male	23	False	True	False	2,20	Yes - corrected-to-normal vision	1	2	1	3	1	0.5728597499837633	96.664837	97.819077	1.1546340777777777	time.process_time()
3	vm4523	Male	23	False	True	False	2,20	Yes - corrected-to-normal vision	1	3	1	3	1	0.3500955830095336	97.81932	98.973703	1.1546340777777777	time.process_time()
3	vm4523	Male	23	False	True	False	2,20	Yes - corrected-to-normal vision	1	4	4	3	1	0.4430597080208827	98.973948	100.128827	1.1546340777777777	time.process_time()
3	vm4523	Male	23	False	True	False	2,20	Yes - corrected-to-normal vision	1	5	9	3	1	0.34938866598531604	100.129079	101.282602	1.1546340777777777	time.process_time()
3	vm4523	Male	23	False	True	False	2,20	Yes - corrected-to-normal vision	1	6	4	3	1	0.34599916700972244	101.282849	102.437267	1.1546340777777777	time.process_time()
3	vm4523	Male	23	False	True	False	2,20	Yes - corrected-to-normal vision	1	7	9	3	1	0.34886216701124795	102.437537	103.592467	1.1546340777777777	time.process_time()
3	vm4523	Male	23	False	True	False	2,20	Yes - corrected-to-normal vision	1	8	1	3	1	0.457980541017605	103.592711	104.746664	1.1546340777777777	time.process_time()
3	vm4523	Male	23	False	True	False	2,20	Yes - corrected-to-normal vision	1	9	7	3	1	0.33539387499331497	104.746903	105.901823	1.1546340777777777	time.process_time()
3	vm4523	Male	23	False	True	False	2,20	Yes - corrected-to-normal vision	1	10	7	3	1	0.3141334999818355	105.902067	107.056791	1.1546340777777777	time.process_time()
3	vm4523	Male	23	False	True	False	2,20	Yes - corrected-to-normal vision	1	11	3	3	0	0.2626731659984216	107.057037	108.211302	1.1546340777777777	time.process_time()
3	vm4523	Male	23	False	True	False	2,20	Yes - corrected-to-normal vision	1	12	5	3	1	0.35172479099128395	108.211544	109.366161	1.1546340777777777	time.process_time()
3	vm4523	Male	23	False	True	False	2,20	Yes - corrected-to-normal vision	1	13	9	3	1	0.35538220798480324	109.366407	110.520489	1.1546340777777777	time.process_time()
3	vm4523	Male	23	False	True	False	2,20	Yes - corrected-to-normal vision	1	14	2	3	1	0.4466077909746673	110.520737	111.674961	1.1546340777777777	time.process_time()
3	vm4523	Male	23	False	True	False	2,20	Yes - corrected-to-normal vision	1	15	8	3	1	0.3735998749907594	111.6752	112.829742	1.1546340777777777	time.process_time()
3	vm4523	Male	23	False	True	False	2,20	Yes - corrected-to-normal vision	1	16	3	3	1	NA	112.829988	113.983968	1.1546340777777777	time.process_time()
3	vm4523	Male	23	False	True	False	2,20	Yes - corrected-to-normal vision	1	17	4	3	1	0.3124646659998689	113.984213	115.138733	1.1546340777777777	time.process_time()
3	vm4523	Male	23	False	True	False	2,20	Yes - corrected-to-normal vision	1	18	2	3	1	0.35592895801528357	115.138976	116.294031	1.1546340777777777	time.process_time()
3	vm4523	Male	23	False	True	False	2,20	Yes - corrected-to-normal vision	1	19	6	3	1	0.3443505839968566	116.294272	117.447816	1.1546340777777777	time.process_time()
3	vm4523	Male	23	False	True	False	2,20	Yes - corrected-to-normal vision	1	20	2	3	1	0.3681152080243919	117.448066	118.602496	1.1546340777777777	time.process_time()
3	vm4523	Male	23	False	True	False	2,20	Yes - corrected-to-normal vision	1	21	6	3	1	0.3095327909977641	118.602737	119.75764	1.1546340777777777	time.process_time()
3	vm4523	Male	23	False	True	False	2,20	Yes - corrected-to-normal vision	1	22	8	3	1	0.3642798329819925	119.757882	120.911848	1.1546340777777777	time.process_time()
3	vm4523	Male	23	False	True	False	2,20	Yes - corrected-to-normal vision	1	23	3	3	0	0.2789784589840565	120.912087	122.06688	1.1546340777777777	time.process_time()
3	vm4523	Male	23	False	True	False	2,20	Yes - corrected-to-normal vision	1	24	6	3	1	0.31934404201456346	122.06717	123.221728	1.1546340777777777	time.process_time()
3	vm4523	Male	23	False	True	False	2,20	Yes - corrected-to-normal vision	1	25	5	3	1	0.3468347080051899	123.22197	124.375459	1.1546340777777777	time.process_time()
3	vm4523	Male	23	False	True	False	2,20	Yes - corrected-to-normal vision	1	26	7	3	1	0.3482992500066757	124.375699	125.530808	1.1546340777777777	time.process_time()
3	vm4523	Male	23	False	True	False	2,20	Yes - corrected-to-normal vision	1	27	2	3	1	0.4030616249947343	125.531048	126.685167	1.1546340777777777	time.process_time()
3	vm4523	Male	23	False	True	False	2,20	Yes - corrected-to-normal vision	1	28	4	3	1	0.3790000409935601	126.685407	127.839409	1.1546340777777777	time.process_time()
3	vm4523	Male	23	False	True	False	2,20	Yes - corrected-to-normal vision	1	29	8	3	1	0.42265241700806655	127.83965	128.994584	1.1546340777777777	time.process_time()
3	vm4523	Male	23	False	True	False	2,20	Yes - corrected-to-normal vision	1	30	3	3	0	0.3439665409969166	128.994836	130.148318	1.1546340777777777	time.process_time()
3	vm4523	Male	23	False	True	False	2,20	Yes - corrected-to-normal vision	1	31	9	3	1	0.39150879200315103	130.148557	131.303055	1.1546340777777777	time.process_time()
3	vm4523	Male	23	False	True	False	2,20	Yes - corrected-to-normal vision	1	32	8	3	1	0.4414858750242274	131.303302	132.457194	1.1546340777777777	time.process_time()
3	vm4523	Male	23	False	True	False	2,20	Yes - corrected-to-normal vision	1	33	6	3	1	0.4271573749720119	132.457487	133.611858	1.1546340777777777	time.process_time()
3	vm4523	Male	23	False	True	False	2,20	Yes - corrected-to-normal vision	1	34	5	3	1	0.370518291980261	133.612103	134.766606	1.1546340777777777	time.process_time()
3	vm4523	Male	23	False	True	False	2,20	Yes - corrected-to-normal vision	1	35	5	3	1	0.4121781660069246	134.766847	135.921172	1.1546340777777777	time.process_time()
3	vm4523	Male	23	False	True	False	2,20	Yes - corrected-to-normal vision	1	36	3	3	1	NA	135.921414	137.076038	1.1546340777777777	time.process_time()
3	vm4523	Male	23	False	True	False	2,20	Yes - corrected-to-normal vision	1	37	9	3	1	0.30067975001293235	137.076298	138.23049	1.1546340777777777	time.process_time()
3	vm4523	Male	23	False	True	False	2,20	Yes - corrected-to-normal vision	1	38	5	3	1	0.3661177920002956	138.230729	139.385344	1.1546340777777777	time.process_time()
3	vm4523	Male	23	False	True	False	2,20	Yes - corrected-to-normal vision	1	39	4	3	1	0.31932962499558926	139.385585	140.539801	1.1546340777777777	time.process_time()
3	vm4523	Male	23	False	True	False	2,20	Yes - corrected-to-normal vision	1	40	2	3	1	0.4369928750093095	140.540039	141.694916	1.1546340777777777	time.process_time()
3	vm4523	Male	23	False	True	False	2,20	Yes - corrected-to-normal vision	1	41	7	3	1	0.2941514999838546	141.695189	142.849524	1.1546340777777777	time.process_time()
3	vm4523	Male	23	False	True	False	2,20	Yes - corrected-to-normal vision	1	42	1	3	1	0.37078695799573325	142.849773	144.004049	1.1546340777777777	time.process_time()
3	vm4523	Male	23	False	True	False	2,20	Yes - corrected-to-normal vision	1	43	6	3	1	0.34498120899661444	144.004289	145.159171	1.1546340777777777	time.process_time()
3	vm4523	Male	23	False	True	False	2,20	Yes - corrected-to-normal vision	1	44	8	3	1	0.36673491599503905	145.159419	146.313358	1.1546340777777777	time.process_time()
3	vm4523	Male	23	False	True	False	2,20	Yes - corrected-to-normal vision	1	45	1	3	1	0.3776967090088874	146.313598	147.468439	1.1546340777777777	time.process_time()
3	vm4523	Male	23	False	True	False	2,20	Yes - corrected-to-normal vision	1	46	6	3	1	0.32130791700910777	147.468691	148.623159	1.1546340777777777	time.process_time()
3	vm4523	Male	23	False	True	False	2,20	Yes - corrected-to-normal vision	1	47	7	3	1	0.40150466602062806	148.623402	149.776939	1.1546340777777777	time.process_time()
3	vm4523	Male	23	False	True	False	2,20	Yes - corrected-to-normal vision	1	48	2	3	1	0.3794147080043331	149.777181	150.932105	1.1546340777777777	time.process_time()
3	vm4523	Male	23	False	True	False	2,20	Yes - corrected-to-normal vision	1	49	9	3	1	0.3513123749871738	150.932349	152.086938	1.1546340777777777	time.process_time()
3	vm4523	Male	23	False	True	False	2,20	Yes - corrected-to-normal vision	1	50	1	3	1	0.4598282500228379	152.087232	153.241707	1.1546340777777777	time.process_time()
3	vm4523	Male	23	False	True	False	2,20	Yes - corrected-to-normal vision	1	51	2	3	1	0.470153542002663	153.241946	154.396036	1.1546340777777777	time.process_time()
3	vm4523	Male	23	False	True	False	2,20	Yes - corrected-to-normal vision	1	52	9	3	1	0.35316195798804983	154.39628	155.550904	1.1546340777777777	time.process_time()
3	vm4523	Male	23	False	True	False	2,20	Yes - corrected-to-normal vision	1	53	6	3	1	0.3656448330148123	155.551153	156.705401	1.1546340777777777	time.process_time()
3	vm4523	Male	23	False	True	False	2,20	Yes - corrected-to-normal vision	1	54	1	3	1	0.3518470830167644	156.705641	157.859707	1.1546340777777777	time.process_time()
3	vm4523	Male	23	False	True	False	2,20	Yes - corrected-to-normal vision	1	55	2	3	1	0.3459710000024643	157.859953	159.013816	1.1546340777777777	time.process_time()
3	vm4523	Male	23	False	True	False	2,20	Yes - corrected-to-normal vision	1	56	4	3	1	0.3371907079999801	159.014056	160.16823	1.1546340777777777	time.process_time()
3	vm4523	Male	23	False	True	False	2,20	Yes - corrected-to-normal vision	1	57	6	3	1	0.3696713329991326	160.168469	161.322892	1.1546340777777777	time.process_time()
3	vm4523	Male	23	False	True	False	2,20	Yes - corrected-to-normal vision	1	58	9	3	1	0.333604874991579	161.323134	162.477689	1.1546340777777777	time.process_time()
3	vm4523	Male	23	False	True	False	2,20	Yes - corrected-to-normal vision	1	59	8	3	1	0.34213566599646583	162.477928	163.632597	1.1546340777777777	time.process_time()
3	vm4523	Male	23	False	True	False	2,20	Yes - corrected-to-normal vision	1	60	7	3	1	0.3500606669986155	163.632843	164.787703	1.1546340777777777	time.process_time()
3	vm4523	Male	23	False	True	False	2,20	Yes - corrected-to-normal vision	1	61	3	3	0	0.2954464590002317	164.787959	165.941897	1.1546340777777777	time.process_time()
3	vm4523	Male	23	False	True	False	2,20	Yes - corrected-to-normal vision	1	62	4	3	1	0.3477843330183532	165.94214	167.096935	1.1546340777777777	time.process_time()
3	vm4523	Male	23	False	True	False	2,20	Yes - corrected-to-normal vision	1	63	8	3	1	0.3681333329877816	167.097176	168.251252	1.1546340777777777	time.process_time()
3	vm4523	Male	23	False	True	False	2,20	Yes - corrected-to-normal vision	1	64	7	3	1	0.37366604199633	168.251494	169.404894	1.1546340777777777	time.process_time()
3	vm4523	Male	23	False	True	False	2,20	Yes - corrected-to-normal vision	1	65	2	3	1	0.4210819579893723	169.405131	170.559703	1.1546340777777777	time.process_time()
3	vm4523	Male	23	False	True	False	2,20	Yes - corrected-to-normal vision	1	66	3	3	1	NA	170.559945	171.714894	1.1546340777777777	time.process_time()
3	vm4523	Male	23	False	True	False	2,20	Yes - corrected-to-normal vision	1	67	3	3	1	NA	171.715201	172.868734	1.1546340777777777	time.process_time()
3	vm4523	Male	23	False	True	False	2,20	Yes - corrected-to-normal vision	1	68	6	3	1	0.33587604100466706	172.868971	174.023787	1.1546340777777777	time.process_time()
3	vm4523	Male	23	False	True	False	2,20	Yes - corrected-to-normal vision	1	69	4	3	1	0.3075985409959685	174.024028	175.177904	1.1546340777777777	time.process_time()
3	vm4523	Male	23	False	True	False	2,20	Yes - corrected-to-normal vision	1	70	1	3	1	0.391232416004641	175.178146	176.332698	1.1546340777777777	time.process_time()
3	vm4523	Male	23	False	True	False	2,20	Yes - corrected-to-normal vision	1	71	3	3	1	NA	176.332946	177.48727	1.1546340777777777	time.process_time()
3	vm4523	Male	23	False	True	False	2,20	Yes - corrected-to-normal vision	1	72	7	3	1	0.3303396670089569	177.487504	178.641826	1.1546340777777777	time.process_time()
3	vm4523	Male	23	False	True	False	2,20	Yes - corrected-to-normal vision	1	73	8	3	1	0.32456004197592847	178.642065	179.79661	1.1546340777777777	time.process_time()
3	vm4523	Male	23	False	True	False	2,20	Yes - corrected-to-normal vision	1	74	1	3	1	0.43806062499061227	179.796854	180.951204	1.1546340777777777	time.process_time()
3	vm4523	Male	23	False	True	False	2,20	Yes - corrected-to-normal vision	1	75	9	3	1	0.3812980840157252	180.95145	182.105827	1.1546340777777777	time.process_time()
3	vm4523	Male	23	False	True	False	2,20	Yes - corrected-to-normal vision	1	76	5	3	1	0.3412782090017572	182.106071	183.260604	1.1546340777777777	time.process_time()
3	vm4523	Male	23	False	True	False	2,20	Yes - corrected-to-normal vision	1	77	4	3	1	0.36962733301334083	183.260845	184.415646	1.1546340777777777	time.process_time()
3	vm4523	Male	23	False	True	False	2,20	Yes - corrected-to-normal vision	1	78	1	3	1	0.44062816599034704	184.415888	185.569882	1.1546340777777777	time.process_time()
3	vm4523	Male	23	False	True	False	2,20	Yes - corrected-to-normal vision	1	79	3	3	1	NA	185.570122	186.724705	1.1546340777777777	time.process_time()
3	vm4523	Male	23	False	True	False	2,20	Yes - corrected-to-normal vision	1	80	7	3	1	0.31511549997958355	186.72495	187.879366	1.1546340777777777	time.process_time()
3	vm4523	Male	23	False	True	False	2,20	Yes - corrected-to-normal vision	1	81	5	3	1	0.33794837500317954	187.879608	189.033112	1.1546340777777777	time.process_time()
3	vm4523	Male	23	False	True	False	2,20	Yes - corrected-to-normal vision	1	82	4	3	1	0.41271266699186526	189.03335	190.188471	1.1546340777777777	time.process_time()
3	vm4523	Male	23	False	True	False	2,20	Yes - corrected-to-normal vision	1	83	5	3	1	0.3697541250148788	190.188714	191.342703	1.1546340777777777	time.process_time()
3	vm4523	Male	23	False	True	False	2,20	Yes - corrected-to-normal vision	1	84	2	3	1	0.37534845899790525	191.342986	192.497318	1.1546340777777777	time.process_time()
3	vm4523	Male	23	False	True	False	2,20	Yes - corrected-to-normal vision	1	85	5	3	1	0.4254700420133304	192.497563	193.651562	1.1546340777777777	time.process_time()
3	vm4523	Male	23	False	True	False	2,20	Yes - corrected-to-normal vision	1	86	8	3	1	0.38474445798783563	193.651804	194.805725	1.1546340777777777	time.process_time()
3	vm4523	Male	23	False	True	False	2,20	Yes - corrected-to-normal vision	1	87	8	3	1	0.33738491698750295	194.805972	195.961231	1.1546340777777777	time.process_time()
3	vm4523	Male	23	False	True	False	2,20	Yes - corrected-to-normal vision	1	88	9	3	1	0.3332546250021551	195.96152	197.115975	1.1546340777777777	time.process_time()
3	vm4523	Male	23	False	True	False	2,20	Yes - corrected-to-normal vision	1	89	5	3	1	0.302825082995696	197.116233	198.270352	1.1546340777777777	time.process_time()
3	vm4523	Male	23	False	True	False	2,20	Yes - corrected-to-normal vision	1	90	6	3	1	0.30235462498967536	198.270602	199.425962	1.1546340777777777	time.process_time()
