condition	part_id	part_gender	part_age	instagram	messenger	imessage	screentime	part_normal_vision	block_num	trial_num	number	omit_num	resp_acc	resp_rt	trial_start_time_s	trial_end_time_s	mean_trial_time_s	timing_function
2	et2356	Male	22	False	True	True	4,26	Yes - normal vision	0	1	8	3	0	NA	43.243529	45.301349	2.056324833333333	time.process_time()
2	et2356	Male	22	False	True	True	4,26	Yes - normal vision	0	2	6	3	1	0.8949166669917759	45.301656	47.357891	2.056324833333333	time.process_time()
2	et2356	Male	22	False	True	True	4,26	Yes - normal vision	0	3	5	3	1	0.6705793339933734	47.358167	49.414446	2.056324833333333	time.process_time()
2	et2356	Male	22	False	True	True	4,26	Yes - normal vision	0	4	7	3	1	0.404610750003485	49.414738	51.470206	2.056324833333333	time.process_time()
2	et2356	Male	22	False	True	True	4,26	Yes - normal vision	0	5	6	3	1	0.3301305000204593	51.470476	53.526923	2.056324833333333	time.process_time()
2	et2356	Male	22	False	True	True	4,26	Yes - normal vision	0	6	4	3	1	0.3334061659988947	53.527212	55.583365	2.056324833333333	time.process_time()
2	et2356	Male	22	False	True	True	4,26	Yes - normal vision	0	7	8	3	1	0.2497940000030212	55.583637	57.639437	2.056324833333333	time.process_time()
2	et2356	Male	22	False	True	True	4,26	Yes - normal vision	0	8	3	3	0	0.3191953750210814	57.639712	59.69588	2.056324833333333	time.process_time()
2	et2356	Male	22	False	True	True	4,26	Yes - normal vision	0	9	3	3	1	NA	59.696155	61.75225	2.056324833333333	time.process_time()
2	et2356	Male	22	False	True	True	4,26	Yes - normal vision	0	10	9	3	1	0.5472083750064485	61.752537	63.80863	2.056324833333333	time.process_time()
2	et2356	Male	22	False	True	True	4,26	Yes - normal vision	0	11	5	3	1	0.3646061670151539	63.808904	65.864069	2.056324833333333	time.process_time()
2	et2356	Male	22	False	True	True	4,26	Yes - normal vision	0	12	7	3	1	0.3915481670119334	65.864419	67.920967	2.056324833333333	time.process_time()
2	et2356	Male	22	False	True	True	4,26	Yes - normal vision	0	13	4	3	1	0.33785358400200494	67.921241	69.977399	2.056324833333333	time.process_time()
2	et2356	Male	22	False	True	True	4,26	Yes - normal vision	0	14	9	3	1	0.36759945799713023	69.97771	72.032854	2.056324833333333	time.process_time()
2	et2356	Male	22	False	True	True	4,26	Yes - normal vision	0	15	2	3	1	0.41070262499852106	72.033121	74.088896	2.056324833333333	time.process_time()
2	et2356	Male	22	False	True	True	4,26	Yes - normal vision	0	16	1	3	1	0.3691477499960456	74.089176	76.145136	2.056324833333333	time.process_time()
2	et2356	Male	22	False	True	True	4,26	Yes - normal vision	0	17	2	3	1	0.4041402080038097	76.145431	78.200735	2.056324833333333	time.process_time()
2	et2356	Male	22	False	True	True	4,26	Yes - normal vision	0	18	1	3	1	0.35486362501978874	78.201003	80.25651	2.056324833333333	time.process_time()
2	et2356	Male	22	False	True	True	4,26	Yes - normal vision	1	1	5	3	1	0.6270127089810558	90.44763	91.602652	1.1547017	time.process_time()
2	et2356	Male	22	False	True	True	4,26	Yes - normal vision	1	2	5	3	1	0.49228695800411515	91.602902	92.757859	1.1547017	time.process_time()
2	et2356	Male	22	False	True	True	4,26	Yes - normal vision	1	3	6	3	1	0.34249320800881833	92.758106	93.912239	1.1547017	time.process_time()
2	et2356	Male	22	False	True	True	4,26	Yes - normal vision	1	4	8	3	1	0.30475045897765085	93.912507	95.067415	1.1547017	time.process_time()
2	et2356	Male	22	False	True	True	4,26	Yes - normal vision	1	5	9	3	1	0.3019834160222672	95.067668	96.221608	1.1547017	time.process_time()
2	et2356	Male	22	False	True	True	4,26	Yes - normal vision	1	6	8	3	1	0.3048666660033632	96.221855	97.37579	1.1547017	time.process_time()
2	et2356	Male	22	False	True	True	4,26	Yes - normal vision	1	7	8	3	1	0.30217108299257234	97.376031	98.530976	1.1547017	time.process_time()
2	et2356	Male	22	False	True	True	4,26	Yes - normal vision	1	8	1	3	1	0.2706890840199776	98.531221	99.685193	1.1547017	time.process_time()
2	et2356	Male	22	False	True	True	4,26	Yes - normal vision	1	9	8	3	1	0.16458433301886544	99.685432	100.840277	1.1547017	time.process_time()
2	et2356	Male	22	False	True	True	4,26	Yes - normal vision	1	10	7	3	1	0.06919195799855515	100.840516	101.99535	1.1547017	time.process_time()
2	et2356	Male	22	False	True	True	4,26	Yes - normal vision	1	11	7	3	1	0.24779983301414177	101.995594	103.149799	1.1547017	time.process_time()
2	et2356	Male	22	False	True	True	4,26	Yes - normal vision	1	12	5	3	1	0.2597524579905439	103.15004	104.304636	1.1547017	time.process_time()
2	et2356	Male	22	False	True	True	4,26	Yes - normal vision	1	13	4	3	1	0.28244508398347534	104.30492	105.459651	1.1547017	time.process_time()
2	et2356	Male	22	False	True	True	4,26	Yes - normal vision	1	14	6	3	1	0.26766199999838136	105.459894	106.613775	1.1547017	time.process_time()
2	et2356	Male	22	False	True	True	4,26	Yes - normal vision	1	15	9	3	1	0.27649550000205636	106.614018	107.768864	1.1547017	time.process_time()
2	et2356	Male	22	False	True	True	4,26	Yes - normal vision	1	16	3	3	0	0.2502985000028275	107.769108	108.923613	1.1547017	time.process_time()
2	et2356	Male	22	False	True	True	4,26	Yes - normal vision	1	17	7	3	1	0.3245549159764778	108.923855	110.077394	1.1547017	time.process_time()
2	et2356	Male	22	False	True	True	4,26	Yes - normal vision	1	18	3	3	0	0.3269466669880785	110.077631	111.232854	1.1547017	time.process_time()
2	et2356	Male	22	False	True	True	4,26	Yes - normal vision	1	19	4	3	1	0.36393070899066515	111.233095	112.387188	1.1547017	time.process_time()
2	et2356	Male	22	False	True	True	4,26	Yes - normal vision	1	20	2	3	1	0.2591185419878457	112.387429	113.542367	1.1547017	time.process_time()
2	et2356	Male	22	False	True	True	4,26	Yes - normal vision	1	21	1	3	1	0.3298869999998715	113.542669	114.697207	1.1547017	time.process_time()
2	et2356	Male	22	False	True	True	4,26	Yes - normal vision	1	22	3	3	1	NA	114.697453	115.851443	1.1547017	time.process_time()
2	et2356	Male	22	False	True	True	4,26	Yes - normal vision	1	23	1	3	1	0.29483341600280255	115.851679	117.006195	1.1547017	time.process_time()
2	et2356	Male	22	False	True	True	4,26	Yes - normal vision	1	24	1	3	1	0.3074705839972012	117.00644	118.161242	1.1547017	time.process_time()
2	et2356	Male	22	False	True	True	4,26	Yes - normal vision	1	25	3	3	0	0.3325361250026617	118.161484	119.315539	1.1547017	time.process_time()
2	et2356	Male	22	False	True	True	4,26	Yes - normal vision	1	26	4	3	1	0.5738617499882821	119.31578	120.471003	1.1547017	time.process_time()
2	et2356	Male	22	False	True	True	4,26	Yes - normal vision	1	27	6	3	1	0.3106719590141438	120.471247	121.625904	1.1547017	time.process_time()
2	et2356	Male	22	False	True	True	4,26	Yes - normal vision	1	28	9	3	1	0.3421320830238983	121.626143	122.78033	1.1547017	time.process_time()
2	et2356	Male	22	False	True	True	4,26	Yes - normal vision	1	29	8	3	1	0.31460091698681936	122.780583	123.934695	1.1547017	time.process_time()
2	et2356	Male	22	False	True	True	4,26	Yes - normal vision	1	30	4	3	1	0.5222795410081744	123.934983	125.088964	1.1547017	time.process_time()
2	et2356	Male	22	False	True	True	4,26	Yes - normal vision	1	31	6	3	1	0.3774807919980958	125.089203	126.243521	1.1547017	time.process_time()
2	et2356	Male	22	False	True	True	4,26	Yes - normal vision	1	32	2	3	1	0.5854225409857463	126.243766	127.398402	1.1547017	time.process_time()
2	et2356	Male	22	False	True	True	4,26	Yes - normal vision	1	33	9	3	1	0.3832578339788597	127.398643	128.55292	1.1547017	time.process_time()
2	et2356	Male	22	False	True	True	4,26	Yes - normal vision	1	34	2	3	1	0.40013116601039656	128.553177	129.708147	1.1547017	time.process_time()
2	et2356	Male	22	False	True	True	4,26	Yes - normal vision	1	35	7	3	1	0.3099255420092959	129.708389	130.863238	1.1547017	time.process_time()
2	et2356	Male	22	False	True	True	4,26	Yes - normal vision	1	36	9	3	1	0.3925103330111597	130.863485	132.017539	1.1547017	time.process_time()
2	et2356	Male	22	False	True	True	4,26	Yes - normal vision	1	37	5	3	1	0.34022891698987223	132.017781	133.172769	1.1547017	time.process_time()
2	et2356	Male	22	False	True	True	4,26	Yes - normal vision	1	38	5	3	1	0.3622704590088688	133.173033	134.327419	1.1547017	time.process_time()
2	et2356	Male	22	False	True	True	4,26	Yes - normal vision	1	39	6	3	1	0.3679375830106437	134.327662	135.481198	1.1547017	time.process_time()
2	et2356	Male	22	False	True	True	4,26	Yes - normal vision	1	40	2	3	1	0.3214880840096157	135.481449	136.636299	1.1547017	time.process_time()
2	et2356	Male	22	False	True	True	4,26	Yes - normal vision	1	41	2	3	1	0.5011876249918714	136.636544	137.791073	1.1547017	time.process_time()
2	et2356	Male	22	False	True	True	4,26	Yes - normal vision	1	42	3	3	0	0.29891354200663045	137.791322	138.946003	1.1547017	time.process_time()
2	et2356	Male	22	False	True	True	4,26	Yes - normal vision	1	43	7	3	1	0.4832362919987645	138.946242	140.100918	1.1547017	time.process_time()
2	et2356	Male	22	False	True	True	4,26	Yes - normal vision	1	44	4	3	1	0.30137566599296406	140.101162	141.255378	1.1547017	time.process_time()
2	et2356	Male	22	False	True	True	4,26	Yes - normal vision	1	45	1	3	1	0.3351457910030149	141.255618	142.409501	1.1547017	time.process_time()
2	et2356	Male	22	False	True	True	4,26	Yes - normal vision	1	46	5	3	1	0.48903724999399856	142.40974	143.564696	1.1547017	time.process_time()
2	et2356	Male	22	False	True	True	4,26	Yes - normal vision	1	47	5	3	1	0.3927889160113409	143.564982	144.718714	1.1547017	time.process_time()
2	et2356	Male	22	False	True	True	4,26	Yes - normal vision	1	48	6	3	1	0.3527235829969868	144.718957	145.873859	1.1547017	time.process_time()
2	et2356	Male	22	False	True	True	4,26	Yes - normal vision	1	49	3	3	1	NA	145.874099	147.02837	1.1547017	time.process_time()
2	et2356	Male	22	False	True	True	4,26	Yes - normal vision	1	50	9	3	1	0.2779688750160858	147.028604	148.183273	1.1547017	time.process_time()
2	et2356	Male	22	False	True	True	4,26	Yes - normal vision	1	51	4	3	1	0.297734624997247	148.183544	149.33815	1.1547017	time.process_time()
2	et2356	Male	22	False	True	True	4,26	Yes - normal vision	1	52	5	3	1	0.28398612499586307	149.338398	150.493151	1.1547017	time.process_time()
2	et2356	Male	22	False	True	True	4,26	Yes - normal vision	1	53	3	3	0	0.2815688749833498	150.493395	151.646864	1.1547017	time.process_time()
2	et2356	Male	22	False	True	True	4,26	Yes - normal vision	1	54	4	3	1	0.35770824999781325	151.647103	152.80167	1.1547017	time.process_time()
2	et2356	Male	22	False	True	True	4,26	Yes - normal vision	1	55	3	3	0	0.2885827089776285	152.80191	153.956764	1.1547017	time.process_time()
2	et2356	Male	22	False	True	True	4,26	Yes - normal vision	1	56	8	3	1	0.38105937498039566	153.957008	155.110939	1.1547017	time.process_time()
2	et2356	Male	22	False	True	True	4,26	Yes - normal vision	1	57	2	3	1	0.3315537500020582	155.111178	156.266088	1.1547017	time.process_time()
2	et2356	Male	22	False	True	True	4,26	Yes - normal vision	1	58	1	3	1	0.38291091698920354	156.266329	157.420585	1.1547017	time.process_time()
2	et2356	Male	22	False	True	True	4,26	Yes - normal vision	1	59	7	3	1	0.3546907920099329	157.420824	158.574296	1.1547017	time.process_time()
2	et2356	Male	22	False	True	True	4,26	Yes - normal vision	1	60	5	3	1	0.3622350420046132	158.574541	159.729471	1.1547017	time.process_time()
2	et2356	Male	22	False	True	True	4,26	Yes - normal vision	1	61	4	3	1	0.3921180840115994	159.72972	160.883875	1.1547017	time.process_time()
2	et2356	Male	22	False	True	True	4,26	Yes - normal vision	1	62	9	3	1	0.4102645829843823	160.884121	162.039076	1.1547017	time.process_time()
2	et2356	Male	22	False	True	True	4,26	Yes - normal vision	1	63	1	3	1	0.3515928749984596	162.039318	163.193903	1.1547017	time.process_time()
2	et2356	Male	22	False	True	True	4,26	Yes - normal vision	1	64	2	3	1	0.28578808400197886	163.194194	164.348504	1.1547017	time.process_time()
2	et2356	Male	22	False	True	True	4,26	Yes - normal vision	1	65	6	3	1	0.35636679097660817	164.348742	165.502853	1.1547017	time.process_time()
2	et2356	Male	22	False	True	True	4,26	Yes - normal vision	1	66	1	3	1	0.4363837919954676	165.503092	166.657977	1.1547017	time.process_time()
2	et2356	Male	22	False	True	True	4,26	Yes - normal vision	1	67	7	3	1	0.31876162500702776	166.658223	167.811852	1.1547017	time.process_time()
2	et2356	Male	22	False	True	True	4,26	Yes - normal vision	1	68	2	3	1	0.42041470800177194	167.812096	168.966446	1.1547017	time.process_time()
2	et2356	Male	22	False	True	True	4,26	Yes - normal vision	1	69	1	3	1	0.3397512500232551	168.966702	170.121786	1.1547017	time.process_time()
2	et2356	Male	22	False	True	True	4,26	Yes - normal vision	1	70	4	3	1	0.3851643330126535	170.122028	171.276058	1.1547017	time.process_time()
2	et2356	Male	22	False	True	True	4,26	Yes - normal vision	1	71	2	3	1	0.30073404201539233	171.276297	172.431019	1.1547017	time.process_time()
2	et2356	Male	22	False	True	True	4,26	Yes - normal vision	1	72	9	3	1	0.41701416700379923	172.431263	173.584844	1.1547017	time.process_time()
2	et2356	Male	22	False	True	True	4,26	Yes - normal vision	1	73	7	3	1	0.35232241699122824	173.58514	174.739763	1.1547017	time.process_time()
2	et2356	Male	22	False	True	True	4,26	Yes - normal vision	1	74	9	3	1	0.318069499975536	174.740008	175.895071	1.1547017	time.process_time()
2	et2356	Male	22	False	True	True	4,26	Yes - normal vision	1	75	2	3	1	0.3444907079974655	175.895321	177.049332	1.1547017	time.process_time()
2	et2356	Male	22	False	True	True	4,26	Yes - normal vision	1	76	3	3	1	NA	177.049578	178.204315	1.1547017	time.process_time()
2	et2356	Male	22	False	True	True	4,26	Yes - normal vision	1	77	6	3	1	0.24939174999599345	178.204555	179.358556	1.1547017	time.process_time()
2	et2356	Male	22	False	True	True	4,26	Yes - normal vision	1	78	8	3	1	0.26301337499171495	179.358799	180.512659	1.1547017	time.process_time()
2	et2356	Male	22	False	True	True	4,26	Yes - normal vision	1	79	9	3	1	0.2923271660110913	180.512909	181.667746	1.1547017	time.process_time()
2	et2356	Male	22	False	True	True	4,26	Yes - normal vision	1	80	1	3	1	0.271869958989555	181.667991	182.822598	1.1547017	time.process_time()
2	et2356	Male	22	False	True	True	4,26	Yes - normal vision	1	81	8	3	1	0.3118872500199359	182.822916	183.977438	1.1547017	time.process_time()
2	et2356	Male	22	False	True	True	4,26	Yes - normal vision	1	82	4	3	1	0.19928616599645466	183.977684	185.132118	1.1547017	time.process_time()
2	et2356	Male	22	False	True	True	4,26	Yes - normal vision	1	83	6	3	1	0.2698716669983696	185.132364	186.286411	1.1547017	time.process_time()
2	et2356	Male	22	False	True	True	4,26	Yes - normal vision	1	84	7	3	1	0.3255953330080956	186.286656	187.440957	1.1547017	time.process_time()
2	et2356	Male	22	False	True	True	4,26	Yes - normal vision	1	85	6	3	1	0.2813185419945512	187.441201	188.595458	1.1547017	time.process_time()
2	et2356	Male	22	False	True	True	4,26	Yes - normal vision	1	86	8	3	1	0.3021261669928208	188.595697	189.749731	1.1547017	time.process_time()
2	et2356	Male	22	False	True	True	4,26	Yes - normal vision	1	87	8	3	1	0.2594420420064125	189.749978	190.905241	1.1547017	time.process_time()
2	et2356	Male	22	False	True	True	4,26	Yes - normal vision	1	88	7	3	1	0.30102466701646335	190.905502	192.060267	1.1547017	time.process_time()
2	et2356	Male	22	False	True	True	4,26	Yes - normal vision	1	89	3	3	0	0.2926922499900684	192.060515	193.214795	1.1547017	time.process_time()
2	et2356	Male	22	False	True	True	4,26	Yes - normal vision	1	90	5	3	1	0.30430787499062717	193.215084	194.370056	1.1547017	time.process_time()
