condition	part_id	part_gender	part_age	instagram	messenger	imessage	screentime	part_normal_vision	block_num	trial_num	number	omit_num	resp_acc	resp_rt	trial_start_time_s	trial_end_time_s	mean_trial_time_s	timing_function
3	th2506	Please Select	24	True	True	False	3,04	Yes - normal vision	0	1	4	3	0	NA	49.037445	51.094897	2.0563111666666667	time.process_time()
3	th2506	Please Select	24	True	True	False	3,04	Yes - normal vision	0	2	1	3	1	0.430999417003477	51.095196	53.152149	2.0563111666666667	time.process_time()
3	th2506	Please Select	24	True	True	False	3,04	Yes - normal vision	0	3	7	3	1	0.3657970420026686	53.152458	55.208295	2.0563111666666667	time.process_time()
3	th2506	Please Select	24	True	True	False	3,04	Yes - normal vision	0	4	3	3	0	0.36392733300453983	55.208579	57.264429	2.0563111666666667	time.process_time()
3	th2506	Please Select	24	True	True	False	3,04	Yes - normal vision	0	5	9	3	1	0.389250207983423	57.264703	59.320854	2.0563111666666667	time.process_time()
3	th2506	Please Select	24	True	True	False	3,04	Yes - normal vision	0	6	2	3	1	0.43785683301393874	59.321251	61.376458	2.0563111666666667	time.process_time()
3	th2506	Please Select	24	True	True	False	3,04	Yes - normal vision	0	7	4	3	1	0.31787258299300447	61.37674	63.433457	2.0563111666666667	time.process_time()
3	th2506	Please Select	24	True	True	False	3,04	Yes - normal vision	0	8	5	3	1	0.4348412499821279	63.433803	65.489817	2.0563111666666667	time.process_time()
3	th2506	Please Select	24	True	True	False	3,04	Yes - normal vision	0	9	3	3	1	NA	65.490097	67.546832	2.0563111666666667	time.process_time()
3	th2506	Please Select	24	True	True	False	3,04	Yes - normal vision	0	10	8	3	1	0.4236000000091735	67.547152	69.602681	2.0563111666666667	time.process_time()
3	th2506	Please Select	24	True	True	False	3,04	Yes - normal vision	0	11	2	3	1	0.43758037500083447	69.603002	71.65788	2.0563111666666667	time.process_time()
3	th2506	Please Select	24	True	True	False	3,04	Yes - normal vision	0	12	6	3	1	0.40012187499087304	71.658148	73.714275	2.0563111666666667	time.process_time()
3	th2506	Please Select	24	True	True	False	3,04	Yes - normal vision	0	13	9	3	1	0.3768244159873575	73.714554	75.770246	2.0563111666666667	time.process_time()
3	th2506	Please Select	24	True	True	False	3,04	Yes - normal vision	0	14	7	3	1	0.3297242090047803	75.770519	77.825661	2.0563111666666667	time.process_time()
3	th2506	Please Select	24	True	True	False	3,04	Yes - normal vision	0	15	6	3	1	0.3429766669869423	77.825931	79.882024	2.0563111666666667	time.process_time()
3	th2506	Please Select	24	True	True	False	3,04	Yes - normal vision	0	16	8	3	1	0.41570550002506934	79.882319	81.937574	2.0563111666666667	time.process_time()
3	th2506	Please Select	24	True	True	False	3,04	Yes - normal vision	0	17	5	3	1	0.3524552079907153	81.937865	83.994076	2.0563111666666667	time.process_time()
3	th2506	Please Select	24	True	True	False	3,04	Yes - normal vision	0	18	1	3	1	0.3835307919944171	83.994353	86.050126	2.0563111666666667	time.process_time()
3	th2506	Please Select	24	True	True	False	3,04	Yes - normal vision	1	1	3	3	0	0.42183137498795986	99.263478	100.41847	1.1548857666666668	time.process_time()
3	th2506	Please Select	24	True	True	False	3,04	Yes - normal vision	1	2	6	3	1	0.38129562497488223	100.418728	101.573017	1.1548857666666668	time.process_time()
3	th2506	Please Select	24	True	True	False	3,04	Yes - normal vision	1	3	4	3	1	0.34303241700399667	101.573263	102.728101	1.1548857666666668	time.process_time()
3	th2506	Please Select	24	True	True	False	3,04	Yes - normal vision	1	4	6	3	1	0.33957116698729806	102.728347	103.88397	1.1548857666666668	time.process_time()
3	th2506	Please Select	24	True	True	False	3,04	Yes - normal vision	1	5	8	3	1	0.35778775002108887	103.884321	105.038046	1.1548857666666668	time.process_time()
3	th2506	Please Select	24	True	True	False	3,04	Yes - normal vision	1	6	2	3	1	0.42338700001710095	105.038357	106.193181	1.1548857666666668	time.process_time()
3	th2506	Please Select	24	True	True	False	3,04	Yes - normal vision	1	7	1	3	1	0.369014124997193	106.193427	107.348938	1.1548857666666668	time.process_time()
3	th2506	Please Select	24	True	True	False	3,04	Yes - normal vision	1	8	2	3	1	0.3608492080238648	107.349299	108.50495	1.1548857666666668	time.process_time()
3	th2506	Please Select	24	True	True	False	3,04	Yes - normal vision	1	9	5	3	1	0.36538599999039434	108.505201	109.659223	1.1548857666666668	time.process_time()
3	th2506	Please Select	24	True	True	False	3,04	Yes - normal vision	1	10	8	3	1	0.39561825001146644	109.659471	110.813836	1.1548857666666668	time.process_time()
3	th2506	Please Select	24	True	True	False	3,04	Yes - normal vision	1	11	3	3	1	NA	110.814151	111.96816	1.1548857666666668	time.process_time()
3	th2506	Please Select	24	True	True	False	3,04	Yes - normal vision	1	12	8	3	1	0.32329666599980555	111.968393	113.122678	1.1548857666666668	time.process_time()
3	th2506	Please Select	24	True	True	False	3,04	Yes - normal vision	1	13	4	3	1	0.3245712500065565	113.122948	114.278339	1.1548857666666668	time.process_time()
3	th2506	Please Select	24	True	True	False	3,04	Yes - normal vision	1	14	6	3	1	0.3476293749990873	114.278617	115.433988	1.1548857666666668	time.process_time()
3	th2506	Please Select	24	True	True	False	3,04	Yes - normal vision	1	15	8	3	1	0.38333833299111575	115.434273	116.58796	1.1548857666666668	time.process_time()
3	th2506	Please Select	24	True	True	False	3,04	Yes - normal vision	1	16	2	3	1	0.4264177920122165	116.588261	117.743671	1.1548857666666668	time.process_time()
3	th2506	Please Select	24	True	True	False	3,04	Yes - normal vision	1	17	5	3	1	0.4155393340042792	117.743928	118.897484	1.1548857666666668	time.process_time()
3	th2506	Please Select	24	True	True	False	3,04	Yes - normal vision	1	18	1	3	1	0.4409186670091003	118.897781	120.05274	1.1548857666666668	time.process_time()
3	th2506	Please Select	24	True	True	False	3,04	Yes - normal vision	1	19	5	3	1	0.3777845840086229	120.052985	121.207821	1.1548857666666668	time.process_time()
3	th2506	Please Select	24	True	True	False	3,04	Yes - normal vision	1	20	5	3	1	0.3802594580047298	121.208074	122.361753	1.1548857666666668	time.process_time()
3	th2506	Please Select	24	True	True	False	3,04	Yes - normal vision	1	21	3	3	0	0.4096585840161424	122.362064	123.516445	1.1548857666666668	time.process_time()
3	th2506	Please Select	24	True	True	False	3,04	Yes - normal vision	1	22	2	3	1	0.32895599998300895	123.516732	124.67023	1.1548857666666668	time.process_time()
3	th2506	Please Select	24	True	True	False	3,04	Yes - normal vision	1	23	9	3	1	0.30420433401013725	124.670533	125.825493	1.1548857666666668	time.process_time()
3	th2506	Please Select	24	True	True	False	3,04	Yes - normal vision	1	24	4	3	1	0.33803070802241564	125.825736	126.980537	1.1548857666666668	time.process_time()
3	th2506	Please Select	24	True	True	False	3,04	Yes - normal vision	1	25	5	3	1	0.29917025001486763	126.980791	128.135086	1.1548857666666668	time.process_time()
3	th2506	Please Select	24	True	True	False	3,04	Yes - normal vision	1	26	7	3	1	0.3759188329859171	128.1354	129.29023	1.1548857666666668	time.process_time()
3	th2506	Please Select	24	True	True	False	3,04	Yes - normal vision	1	27	7	3	1	0.42749520801589824	129.290481	130.444716	1.1548857666666668	time.process_time()
3	th2506	Please Select	24	True	True	False	3,04	Yes - normal vision	1	28	6	3	1	0.3829562079918105	130.445025	131.60018	1.1548857666666668	time.process_time()
3	th2506	Please Select	24	True	True	False	3,04	Yes - normal vision	1	29	3	3	1	NA	131.600438	132.75458	1.1548857666666668	time.process_time()
3	th2506	Please Select	24	True	True	False	3,04	Yes - normal vision	1	30	2	3	1	0.28826520798611455	132.754823	133.908989	1.1548857666666668	time.process_time()
3	th2506	Please Select	24	True	True	False	3,04	Yes - normal vision	1	31	9	3	1	0.28622574999462813	133.909285	135.064273	1.1548857666666668	time.process_time()
3	th2506	Please Select	24	True	True	False	3,04	Yes - normal vision	1	32	9	3	1	0.3068353330017999	135.064517	136.218639	1.1548857666666668	time.process_time()
3	th2506	Please Select	24	True	True	False	3,04	Yes - normal vision	1	33	3	3	1	NA	136.21894	137.373908	1.1548857666666668	time.process_time()
3	th2506	Please Select	24	True	True	False	3,04	Yes - normal vision	1	34	8	3	1	0.3372466249857098	137.374144	138.528722	1.1548857666666668	time.process_time()
3	th2506	Please Select	24	True	True	False	3,04	Yes - normal vision	1	35	7	3	1	0.3239945420064032	138.52897	139.683426	1.1548857666666668	time.process_time()
3	th2506	Please Select	24	True	True	False	3,04	Yes - normal vision	1	36	9	3	1	0.3285127090057358	139.683734	140.838505	1.1548857666666668	time.process_time()
3	th2506	Please Select	24	True	True	False	3,04	Yes - normal vision	1	37	4	3	1	0.3633565829950385	140.838749	141.993154	1.1548857666666668	time.process_time()
3	th2506	Please Select	24	True	True	False	3,04	Yes - normal vision	1	38	1	3	1	0.46143362499424256	141.993487	143.148427	1.1548857666666668	time.process_time()
3	th2506	Please Select	24	True	True	False	3,04	Yes - normal vision	1	39	1	3	1	0.38808204198721796	143.148733	144.303604	1.1548857666666668	time.process_time()
3	th2506	Please Select	24	True	True	False	3,04	Yes - normal vision	1	40	7	3	1	0.3824580409855116	144.303861	145.458399	1.1548857666666668	time.process_time()
3	th2506	Please Select	24	True	True	False	3,04	Yes - normal vision	1	41	9	3	1	0.32559424999635667	145.4587	146.613837	1.1548857666666668	time.process_time()
3	th2506	Please Select	24	True	True	False	3,04	Yes - normal vision	1	42	1	3	1	0.399468124989653	146.614082	147.768657	1.1548857666666668	time.process_time()
3	th2506	Please Select	24	True	True	False	3,04	Yes - normal vision	1	43	7	3	1	0.3245037499873433	147.768909	148.923153	1.1548857666666668	time.process_time()
3	th2506	Please Select	24	True	True	False	3,04	Yes - normal vision	1	44	6	3	1	0.3099185420142021	148.923446	150.078818	1.1548857666666668	time.process_time()
3	th2506	Please Select	24	True	True	False	3,04	Yes - normal vision	1	45	4	3	1	0.28844408300938085	150.079166	151.23247	1.1548857666666668	time.process_time()
3	th2506	Please Select	24	True	True	False	3,04	Yes - normal vision	1	46	9	3	1	0.27632041700417176	151.233023	152.388883	1.1548857666666668	time.process_time()
3	th2506	Please Select	24	True	True	False	3,04	Yes - normal vision	1	47	3	3	1	NA	152.389137	153.543924	1.1548857666666668	time.process_time()
3	th2506	Please Select	24	True	True	False	3,04	Yes - normal vision	1	48	5	3	1	0.28070362500147894	153.544196	154.699357	1.1548857666666668	time.process_time()
3	th2506	Please Select	24	True	True	False	3,04	Yes - normal vision	1	49	2	3	1	0.2754490000079386	154.699608	155.85463	1.1548857666666668	time.process_time()
3	th2506	Please Select	24	True	True	False	3,04	Yes - normal vision	1	50	1	3	1	0.21776945900637656	155.854881	157.008866	1.1548857666666668	time.process_time()
3	th2506	Please Select	24	True	True	False	3,04	Yes - normal vision	1	51	2	3	1	0.30998979101423174	157.009178	158.164222	1.1548857666666668	time.process_time()
3	th2506	Please Select	24	True	True	False	3,04	Yes - normal vision	1	52	3	3	0	0.31696695799473673	158.164474	159.3186	1.1548857666666668	time.process_time()
3	th2506	Please Select	24	True	True	False	3,04	Yes - normal vision	1	53	1	3	1	0.3093657080025878	159.318851	160.47277	1.1548857666666668	time.process_time()
3	th2506	Please Select	24	True	True	False	3,04	Yes - normal vision	1	54	6	3	1	0.32355512501089834	160.473078	161.628347	1.1548857666666668	time.process_time()
3	th2506	Please Select	24	True	True	False	3,04	Yes - normal vision	1	55	9	3	1	0.34154029199271463	161.628596	162.782506	1.1548857666666668	time.process_time()
3	th2506	Please Select	24	True	True	False	3,04	Yes - normal vision	1	56	9	3	1	0.33128041701274924	162.782817	163.938422	1.1548857666666668	time.process_time()
3	th2506	Please Select	24	True	True	False	3,04	Yes - normal vision	1	57	5	3	1	0.309609084011754	163.938699	165.093547	1.1548857666666668	time.process_time()
3	th2506	Please Select	24	True	True	False	3,04	Yes - normal vision	1	58	7	3	1	0.33122433300013654	165.093799	166.247321	1.1548857666666668	time.process_time()
3	th2506	Please Select	24	True	True	False	3,04	Yes - normal vision	1	59	7	3	1	0.2666678329987917	166.247621	167.402634	1.1548857666666668	time.process_time()
3	th2506	Please Select	24	True	True	False	3,04	Yes - normal vision	1	60	7	3	1	0.2948907919926569	167.402892	168.556619	1.1548857666666668	time.process_time()
3	th2506	Please Select	24	True	True	False	3,04	Yes - normal vision	1	61	6	3	1	0.3279786249913741	168.556921	169.711226	1.1548857666666668	time.process_time()
3	th2506	Please Select	24	True	True	False	3,04	Yes - normal vision	1	62	1	3	1	0.3861092919833027	169.711475	170.866478	1.1548857666666668	time.process_time()
3	th2506	Please Select	24	True	True	False	3,04	Yes - normal vision	1	63	2	3	1	0.5264589999860618	170.866731	172.020899	1.1548857666666668	time.process_time()
3	th2506	Please Select	24	True	True	False	3,04	Yes - normal vision	1	64	2	3	1	0.38086491599096917	172.02115	173.176157	1.1548857666666668	time.process_time()
3	th2506	Please Select	24	True	True	False	3,04	Yes - normal vision	1	65	7	3	1	0.377386000007391	173.176455	174.330906	1.1548857666666668	time.process_time()
3	th2506	Please Select	24	True	True	False	3,04	Yes - normal vision	1	66	9	3	1	0.3808004579914268	174.331219	175.486071	1.1548857666666668	time.process_time()
3	th2506	Please Select	24	True	True	False	3,04	Yes - normal vision	1	67	6	3	1	0.32840620799106546	175.486316	176.640467	1.1548857666666668	time.process_time()
3	th2506	Please Select	24	True	True	False	3,04	Yes - normal vision	1	68	6	3	1	0.29615683399606496	176.640774	177.795416	1.1548857666666668	time.process_time()
3	th2506	Please Select	24	True	True	False	3,04	Yes - normal vision	1	69	8	3	1	0.30540170799940825	177.795666	178.950696	1.1548857666666668	time.process_time()
3	th2506	Please Select	24	True	True	False	3,04	Yes - normal vision	1	70	8	3	1	0.3486432500067167	178.950947	180.104608	1.1548857666666668	time.process_time()
3	th2506	Please Select	24	True	True	False	3,04	Yes - normal vision	1	71	9	3	1	0.32448808301705867	180.104924	181.260144	1.1548857666666668	time.process_time()
3	th2506	Please Select	24	True	True	False	3,04	Yes - normal vision	1	72	1	3	1	0.41752279101638123	181.260396	182.414734	1.1548857666666668	time.process_time()
3	th2506	Please Select	24	True	True	False	3,04	Yes - normal vision	1	73	7	3	1	0.36693233298137784	182.414986	183.569192	1.1548857666666668	time.process_time()
3	th2506	Please Select	24	True	True	False	3,04	Yes - normal vision	1	74	4	3	1	0.33825483301188797	183.569575	184.724721	1.1548857666666668	time.process_time()
3	th2506	Please Select	24	True	True	False	3,04	Yes - normal vision	1	75	8	3	1	0.2740379579772707	184.724983	185.878863	1.1548857666666668	time.process_time()
3	th2506	Please Select	24	True	True	False	3,04	Yes - normal vision	1	76	4	3	1	0.3143488749919925	185.879196	187.03425	1.1548857666666668	time.process_time()
3	th2506	Please Select	24	True	True	False	3,04	Yes - normal vision	1	77	4	3	1	0.3484720829874277	187.034501	188.188965	1.1548857666666668	time.process_time()
3	th2506	Please Select	24	True	True	False	3,04	Yes - normal vision	1	78	6	3	1	0.32520904098055325	188.189217	189.342649	1.1548857666666668	time.process_time()
3	th2506	Please Select	24	True	True	False	3,04	Yes - normal vision	1	79	4	3	1	0.3855872080021072	189.342958	190.498082	1.1548857666666668	time.process_time()
3	th2506	Please Select	24	True	True	False	3,04	Yes - normal vision	1	80	1	3	1	0.3019289590010885	190.498334	191.652916	1.1548857666666668	time.process_time()
3	th2506	Please Select	24	True	True	False	3,04	Yes - normal vision	1	81	5	3	1	0.30604637498618104	191.653218	192.808394	1.1548857666666668	time.process_time()
3	th2506	Please Select	24	True	True	False	3,04	Yes - normal vision	1	82	3	3	1	NA	192.808643	193.962594	1.1548857666666668	time.process_time()
3	th2506	Please Select	24	True	True	False	3,04	Yes - normal vision	1	83	5	3	1	0.2995140419807285	193.962835	195.11661	1.1548857666666668	time.process_time()
3	th2506	Please Select	24	True	True	False	3,04	Yes - normal vision	1	84	2	3	1	0.2858121670142282	195.116924	196.272028	1.1548857666666668	time.process_time()
3	th2506	Please Select	24	True	True	False	3,04	Yes - normal vision	1	85	3	3	0	0.27704920899122953	196.272279	197.426306	1.1548857666666668	time.process_time()
3	th2506	Please Select	24	True	True	False	3,04	Yes - normal vision	1	86	5	3	1	0.2942572920001112	197.426614	198.582143	1.1548857666666668	time.process_time()
3	th2506	Please Select	24	True	True	False	3,04	Yes - normal vision	1	87	8	3	1	0.24874108299263753	198.582414	199.737137	1.1548857666666668	time.process_time()
3	th2506	Please Select	24	True	True	False	3,04	Yes - normal vision	1	88	8	3	1	0.24993958298000507	199.737386	200.892858	1.1548857666666668	time.process_time()
3	th2506	Please Select	24	True	True	False	3,04	Yes - normal vision	1	89	3	3	0	0.29143008298706263	200.893119	202.047895	1.1548857666666668	time.process_time()
3	th2506	Please Select	24	True	True	False	3,04	Yes - normal vision	1	90	4	3	1	0.18982474997756071	202.048149	203.202467	1.1548857666666668	time.process_time()
