condition	part_id	part_gender	part_age	instagram	messenger	imessage	screentime	part_normal_vision	block_num	trial_num	number	omit_num	resp_acc	resp_rt	trial_start_time_s	trial_end_time_s	mean_trial_time_s	timing_function
2	as1909	Male	19	True	True	False	4,16	Yes - corrected-to-normal vision	0	1	1	3	0	NA	38.682428	40.739956	2.056336611111111	time.process_time()
2	as1909	Male	19	True	True	False	4,16	Yes - corrected-to-normal vision	0	2	7	3	1	0.7192631659854669	40.74024	42.79714	2.056336611111111	time.process_time()
2	as1909	Male	19	True	True	False	4,16	Yes - corrected-to-normal vision	0	3	2	3	1	0.5776901670033112	42.797432	44.853636	2.056336611111111	time.process_time()
2	as1909	Male	19	True	True	False	4,16	Yes - corrected-to-normal vision	0	4	2	3	1	0.3696628750185482	44.853928	46.910544	2.056336611111111	time.process_time()
2	as1909	Male	19	True	True	False	4,16	Yes - corrected-to-normal vision	0	5	4	3	1	0.5204103339929134	46.910814	48.965948	2.056336611111111	time.process_time()
2	as1909	Male	19	True	True	False	4,16	Yes - corrected-to-normal vision	0	6	5	3	1	0.4308607920247596	48.966242	51.022581	2.056336611111111	time.process_time()
2	as1909	Male	19	True	True	False	4,16	Yes - corrected-to-normal vision	0	7	5	3	1	0.5648841250222176	51.022851	53.079322	2.056336611111111	time.process_time()
2	as1909	Male	19	True	True	False	4,16	Yes - corrected-to-normal vision	0	8	8	3	1	0.5157025830121711	53.079589	55.134651	2.056336611111111	time.process_time()
2	as1909	Male	19	True	True	False	4,16	Yes - corrected-to-normal vision	0	9	6	3	1	0.32131224998738617	55.134919	57.190766	2.056336611111111	time.process_time()
2	as1909	Male	19	True	True	False	4,16	Yes - corrected-to-normal vision	0	10	8	3	1	0.3930488750047516	57.191059	59.247444	2.056336611111111	time.process_time()
2	as1909	Male	19	True	True	False	4,16	Yes - corrected-to-normal vision	0	11	9	3	1	0.3839389590139035	59.247762	61.302803	2.056336611111111	time.process_time()
2	as1909	Male	19	True	True	False	4,16	Yes - corrected-to-normal vision	0	12	1	3	1	0.3226596669992432	61.30307	63.358898	2.056336611111111	time.process_time()
2	as1909	Male	19	True	True	False	4,16	Yes - corrected-to-normal vision	0	13	9	3	1	0.4138201250170823	63.359165	65.414912	2.056336611111111	time.process_time()
2	as1909	Male	19	True	True	False	4,16	Yes - corrected-to-normal vision	0	14	7	3	1	0.30165762500837445	65.415197	67.47146	2.056336611111111	time.process_time()
2	as1909	Male	19	True	True	False	4,16	Yes - corrected-to-normal vision	0	15	4	3	1	0.3738261669932399	67.471734	69.527466	2.056336611111111	time.process_time()
2	as1909	Male	19	True	True	False	4,16	Yes - corrected-to-normal vision	0	16	6	3	1	0.3638270839874167	69.527868	71.583679	2.056336611111111	time.process_time()
2	as1909	Male	19	True	True	False	4,16	Yes - corrected-to-normal vision	0	17	3	3	0	0.32089479101705365	71.583967	73.639801	2.056336611111111	time.process_time()
2	as1909	Male	19	True	True	False	4,16	Yes - corrected-to-normal vision	0	18	3	3	1	NA	73.640075	75.695604	2.056336611111111	time.process_time()
2	as1909	Male	19	True	True	False	4,16	Yes - corrected-to-normal vision	1	1	6	3	1	0.7666585000115447	83.692301	84.846858	1.1546741777777778	time.process_time()
2	as1909	Male	19	True	True	False	4,16	Yes - corrected-to-normal vision	1	2	1	3	1	0.8248429160157684	84.847102	86.001676	1.1546741777777778	time.process_time()
2	as1909	Male	19	True	True	False	4,16	Yes - corrected-to-normal vision	1	3	5	3	1	0.6234627079975326	86.001921	87.156853	1.1546741777777778	time.process_time()
2	as1909	Male	19	True	True	False	4,16	Yes - corrected-to-normal vision	1	4	3	3	1	NA	87.157096	88.310701	1.1546741777777778	time.process_time()
2	as1909	Male	19	True	True	False	4,16	Yes - corrected-to-normal vision	1	5	8	3	1	0.3214864170004148	88.310939	89.465073	1.1546741777777778	time.process_time()
2	as1909	Male	19	True	True	False	4,16	Yes - corrected-to-normal vision	1	6	7	3	1	0.6268075409752782	89.465369	90.620159	1.1546741777777778	time.process_time()
2	as1909	Male	19	True	True	False	4,16	Yes - corrected-to-normal vision	1	7	7	3	1	0.5042913749930449	90.620426	91.774879	1.1546741777777778	time.process_time()
2	as1909	Male	19	True	True	False	4,16	Yes - corrected-to-normal vision	1	8	2	3	1	0.5493863750016317	91.775196	92.930926	1.1546741777777778	time.process_time()
2	as1909	Male	19	True	True	False	4,16	Yes - corrected-to-normal vision	1	9	3	3	1	NA	92.931178	94.085893	1.1546741777777778	time.process_time()
2	as1909	Male	19	True	True	False	4,16	Yes - corrected-to-normal vision	1	10	6	3	1	0.2636044579849113	94.08613	95.239503	1.1546741777777778	time.process_time()
2	as1909	Male	19	True	True	False	4,16	Yes - corrected-to-normal vision	1	11	9	3	1	0.34151749999728054	95.239747	96.394671	1.1546741777777778	time.process_time()
2	as1909	Male	19	True	True	False	4,16	Yes - corrected-to-normal vision	1	12	8	3	1	0.36116695901728235	96.394915	97.548989	1.1546741777777778	time.process_time()
2	as1909	Male	19	True	True	False	4,16	Yes - corrected-to-normal vision	1	13	6	3	1	0.5659009169903584	97.549237	98.703998	1.1546741777777778	time.process_time()
2	as1909	Male	19	True	True	False	4,16	Yes - corrected-to-normal vision	1	14	2	3	1	0.8346596249903087	98.704243	99.858873	1.1546741777777778	time.process_time()
2	as1909	Male	19	True	True	False	4,16	Yes - corrected-to-normal vision	1	15	4	3	1	0.4839812499994878	99.859139	101.013303	1.1546741777777778	time.process_time()
2	as1909	Male	19	True	True	False	4,16	Yes - corrected-to-normal vision	1	16	3	3	1	NA	101.013545	102.167422	1.1546741777777778	time.process_time()
2	as1909	Male	19	True	True	False	4,16	Yes - corrected-to-normal vision	1	17	1	3	1	0.28053499999805354	102.167667	103.322481	1.1546741777777778	time.process_time()
2	as1909	Male	19	True	True	False	4,16	Yes - corrected-to-normal vision	1	18	1	3	1	0.45900825000717305	103.322731	104.477097	1.1546741777777778	time.process_time()
2	as1909	Male	19	True	True	False	4,16	Yes - corrected-to-normal vision	1	19	7	3	1	0.45299195797997527	104.477345	105.631848	1.1546741777777778	time.process_time()
2	as1909	Male	19	True	True	False	4,16	Yes - corrected-to-normal vision	1	20	5	3	1	0.36892137498944066	105.632095	106.786238	1.1546741777777778	time.process_time()
2	as1909	Male	19	True	True	False	4,16	Yes - corrected-to-normal vision	1	21	8	3	1	0.38606262498069555	106.786489	107.940761	1.1546741777777778	time.process_time()
2	as1909	Male	19	True	True	False	4,16	Yes - corrected-to-normal vision	1	22	2	3	1	0.5758843329967931	107.941012	109.095641	1.1546741777777778	time.process_time()
2	as1909	Male	19	True	True	False	4,16	Yes - corrected-to-normal vision	1	23	7	3	1	0.421705041982932	109.095933	110.250821	1.1546741777777778	time.process_time()
2	as1909	Male	19	True	True	False	4,16	Yes - corrected-to-normal vision	1	24	6	3	1	0.30282637500204146	110.251083	111.405408	1.1546741777777778	time.process_time()
2	as1909	Male	19	True	True	False	4,16	Yes - corrected-to-normal vision	1	25	2	3	1	0.31159787499927916	111.405648	112.560754	1.1546741777777778	time.process_time()
2	as1909	Male	19	True	True	False	4,16	Yes - corrected-to-normal vision	1	26	5	3	1	0.4578097079938743	112.560997	113.714354	1.1546741777777778	time.process_time()
2	as1909	Male	19	True	True	False	4,16	Yes - corrected-to-normal vision	1	27	8	3	1	0.4332801249984186	113.714604	114.869257	1.1546741777777778	time.process_time()
2	as1909	Male	19	True	True	False	4,16	Yes - corrected-to-normal vision	1	28	8	3	1	0.3515684999874793	114.869502	116.024496	1.1546741777777778	time.process_time()
2	as1909	Male	19	True	True	False	4,16	Yes - corrected-to-normal vision	1	29	9	3	1	0.5157153330219444	116.024746	117.178714	1.1546741777777778	time.process_time()
2	as1909	Male	19	True	True	False	4,16	Yes - corrected-to-normal vision	1	30	7	3	1	0.5561181669763755	117.17896	118.333847	1.1546741777777778	time.process_time()
2	as1909	Male	19	True	True	False	4,16	Yes - corrected-to-normal vision	1	31	1	3	1	0.6887327499862295	118.334094	119.488776	1.1546741777777778	time.process_time()
2	as1909	Male	19	True	True	False	4,16	Yes - corrected-to-normal vision	1	32	4	3	1	0.6740571660047863	119.489043	120.643371	1.1546741777777778	time.process_time()
2	as1909	Male	19	True	True	False	4,16	Yes - corrected-to-normal vision	1	33	3	3	1	NA	120.64362	121.798297	1.1546741777777778	time.process_time()
2	as1909	Male	19	True	True	False	4,16	Yes - corrected-to-normal vision	1	34	6	3	1	0.433561167010339	121.798533	122.953121	1.1546741777777778	time.process_time()
2	as1909	Male	19	True	True	False	4,16	Yes - corrected-to-normal vision	1	35	4	3	1	0.4757204999914393	122.953379	124.10806	1.1546741777777778	time.process_time()
2	as1909	Male	19	True	True	False	4,16	Yes - corrected-to-normal vision	1	36	5	3	1	0.6050939589913469	124.108332	125.263509	1.1546741777777778	time.process_time()
2	as1909	Male	19	True	True	False	4,16	Yes - corrected-to-normal vision	1	37	4	3	1	0.6981545420130715	125.263761	126.418167	1.1546741777777778	time.process_time()
2	as1909	Male	19	True	True	False	4,16	Yes - corrected-to-normal vision	1	38	4	3	1	0.7262126660207286	126.418417	127.572284	1.1546741777777778	time.process_time()
2	as1909	Male	19	True	True	False	4,16	Yes - corrected-to-normal vision	1	39	9	3	1	0.7538679169956595	127.572527	128.727458	1.1546741777777778	time.process_time()
2	as1909	Male	19	True	True	False	4,16	Yes - corrected-to-normal vision	1	40	3	3	0	0.6995354999962728	128.727703	129.881701	1.1546741777777778	time.process_time()
2	as1909	Male	19	True	True	False	4,16	Yes - corrected-to-normal vision	1	41	2	3	1	0.7211871249892283	129.881945	131.03745	1.1546741777777778	time.process_time()
2	as1909	Male	19	True	True	False	4,16	Yes - corrected-to-normal vision	1	42	5	3	1	0.7312411250022706	131.037692	132.192337	1.1546741777777778	time.process_time()
2	as1909	Male	19	True	True	False	4,16	Yes - corrected-to-normal vision	1	43	9	3	1	0.5997437500045635	132.192582	133.346804	1.1546741777777778	time.process_time()
2	as1909	Male	19	True	True	False	4,16	Yes - corrected-to-normal vision	1	44	9	3	1	0.6048574580054265	133.347054	134.501444	1.1546741777777778	time.process_time()
2	as1909	Male	19	True	True	False	4,16	Yes - corrected-to-normal vision	1	45	1	3	1	0.5919587919779588	134.50169	135.65668	1.1546741777777778	time.process_time()
2	as1909	Male	19	True	True	False	4,16	Yes - corrected-to-normal vision	1	46	4	3	1	0.5423317499808036	135.656932	136.810368	1.1546741777777778	time.process_time()
2	as1909	Male	19	True	True	False	4,16	Yes - corrected-to-normal vision	1	47	3	3	1	NA	136.81061	137.964586	1.1546741777777778	time.process_time()
2	as1909	Male	19	True	True	False	4,16	Yes - corrected-to-normal vision	1	48	1	3	1	0.539431582990801	137.96483	139.119398	1.1546741777777778	time.process_time()
2	as1909	Male	19	True	True	False	4,16	Yes - corrected-to-normal vision	1	49	4	3	1	0.5229254580044653	139.119673	140.273416	1.1546741777777778	time.process_time()
2	as1909	Male	19	True	True	False	4,16	Yes - corrected-to-normal vision	1	50	3	3	0	0.39619612498790957	140.273659	141.42862	1.1546741777777778	time.process_time()
2	as1909	Male	19	True	True	False	4,16	Yes - corrected-to-normal vision	1	51	5	3	1	0.5132055839931127	141.428865	142.58274	1.1546741777777778	time.process_time()
2	as1909	Male	19	True	True	False	4,16	Yes - corrected-to-normal vision	1	52	4	3	1	0.5369582920102403	142.582982	143.737158	1.1546741777777778	time.process_time()
2	as1909	Male	19	True	True	False	4,16	Yes - corrected-to-normal vision	1	53	5	3	1	0.6960285420063883	143.7374	144.891365	1.1546741777777778	time.process_time()
2	as1909	Male	19	True	True	False	4,16	Yes - corrected-to-normal vision	1	54	5	3	1	1.0241425829881337	144.891615	146.045331	1.1546741777777778	time.process_time()
2	as1909	Male	19	True	True	False	4,16	Yes - corrected-to-normal vision	1	55	2	3	1	0.8560306250001304	146.045577	147.200422	1.1546741777777778	time.process_time()
2	as1909	Male	19	True	True	False	4,16	Yes - corrected-to-normal vision	1	56	9	3	1	0.75700091701583	147.200667	148.354776	1.1546741777777778	time.process_time()
2	as1909	Male	19	True	True	False	4,16	Yes - corrected-to-normal vision	1	57	3	3	1	NA	148.355021	149.509079	1.1546741777777778	time.process_time()
2	as1909	Male	19	True	True	False	4,16	Yes - corrected-to-normal vision	1	58	6	3	1	0.4170319999975618	149.509374	150.664182	1.1546741777777778	time.process_time()
2	as1909	Male	19	True	True	False	4,16	Yes - corrected-to-normal vision	1	59	1	3	1	0.45374624998657964	150.664419	151.819388	1.1546741777777778	time.process_time()
2	as1909	Male	19	True	True	False	4,16	Yes - corrected-to-normal vision	1	60	8	3	1	0.5027003750146832	151.819642	152.97396	1.1546741777777778	time.process_time()
2	as1909	Male	19	True	True	False	4,16	Yes - corrected-to-normal vision	1	61	1	3	1	0.5115767499955837	152.974202	154.128252	1.1546741777777778	time.process_time()
2	as1909	Male	19	True	True	False	4,16	Yes - corrected-to-normal vision	1	62	5	3	1	0.6006394169817213	154.128515	155.282455	1.1546741777777778	time.process_time()
2	as1909	Male	19	True	True	False	4,16	Yes - corrected-to-normal vision	1	63	8	3	1	0.7183870410080999	155.282696	156.436112	1.1546741777777778	time.process_time()
2	as1909	Male	19	True	True	False	4,16	Yes - corrected-to-normal vision	1	64	2	3	1	0.751439166982891	156.436358	157.591341	1.1546741777777778	time.process_time()
2	as1909	Male	19	True	True	False	4,16	Yes - corrected-to-normal vision	1	65	7	3	1	0.5904045420174953	157.591587	158.746375	1.1546741777777778	time.process_time()
2	as1909	Male	19	True	True	False	4,16	Yes - corrected-to-normal vision	1	66	9	3	1	0.6006333749974146	158.74667	159.902316	1.1546741777777778	time.process_time()
2	as1909	Male	19	True	True	False	4,16	Yes - corrected-to-normal vision	1	67	1	3	1	0.5405503329820931	159.902572	161.057332	1.1546741777777778	time.process_time()
2	as1909	Male	19	True	True	False	4,16	Yes - corrected-to-normal vision	1	68	2	3	1	0.5516143749991897	161.057581	162.211868	1.1546741777777778	time.process_time()
2	as1909	Male	19	True	True	False	4,16	Yes - corrected-to-normal vision	1	69	6	3	1	0.5975377919967286	162.212108	163.366615	1.1546741777777778	time.process_time()
2	as1909	Male	19	True	True	False	4,16	Yes - corrected-to-normal vision	1	70	3	3	1	NA	163.366853	164.521349	1.1546741777777778	time.process_time()
2	as1909	Male	19	True	True	False	4,16	Yes - corrected-to-normal vision	1	71	2	3	1	0.3203953329939395	164.521602	165.675031	1.1546741777777778	time.process_time()
2	as1909	Male	19	True	True	False	4,16	Yes - corrected-to-normal vision	1	72	1	3	1	0.2994497079926077	165.675271	166.829835	1.1546741777777778	time.process_time()
2	as1909	Male	19	True	True	False	4,16	Yes - corrected-to-normal vision	1	73	9	3	1	0.31362920900573954	166.830076	167.985233	1.1546741777777778	time.process_time()
2	as1909	Male	19	True	True	False	4,16	Yes - corrected-to-normal vision	1	74	8	3	1	0.45448487499379553	167.985489	169.139613	1.1546741777777778	time.process_time()
2	as1909	Male	19	True	True	False	4,16	Yes - corrected-to-normal vision	1	75	6	3	1	0.3124639999878127	169.139904	170.293957	1.1546741777777778	time.process_time()
2	as1909	Male	19	True	True	False	4,16	Yes - corrected-to-normal vision	1	76	7	3	1	0.27612370799761266	170.294201	171.447734	1.1546741777777778	time.process_time()
2	as1909	Male	19	True	True	False	4,16	Yes - corrected-to-normal vision	1	77	7	3	1	0.25111920799827203	171.447983	172.602245	1.1546741777777778	time.process_time()
2	as1909	Male	19	True	True	False	4,16	Yes - corrected-to-normal vision	1	78	6	3	1	0.26717958398512565	172.602489	173.756987	1.1546741777777778	time.process_time()
2	as1909	Male	19	True	True	False	4,16	Yes - corrected-to-normal vision	1	79	8	3	1	0.2662207919929642	173.757231	174.911374	1.1546741777777778	time.process_time()
2	as1909	Male	19	True	True	False	4,16	Yes - corrected-to-normal vision	1	80	9	3	1	0.22395366698037833	174.911617	176.066044	1.1546741777777778	time.process_time()
2	as1909	Male	19	True	True	False	4,16	Yes - corrected-to-normal vision	1	81	6	3	1	0.24878333302331157	176.066287	177.221427	1.1546741777777778	time.process_time()
2	as1909	Male	19	True	True	False	4,16	Yes - corrected-to-normal vision	1	82	7	3	1	0.07902237502275966	177.221668	178.375594	1.1546741777777778	time.process_time()
2	as1909	Male	19	True	True	False	4,16	Yes - corrected-to-normal vision	1	83	2	3	1	0.08815141601371579	178.375895	179.530708	1.1546741777777778	time.process_time()
2	as1909	Male	19	True	True	False	4,16	Yes - corrected-to-normal vision	1	84	4	3	1	0.21057950000977144	179.530955	180.685532	1.1546741777777778	time.process_time()
2	as1909	Male	19	True	True	False	4,16	Yes - corrected-to-normal vision	1	85	3	3	0	0.2294459579861723	180.685781	181.839272	1.1546741777777778	time.process_time()
2	as1909	Male	19	True	True	False	4,16	Yes - corrected-to-normal vision	1	86	9	3	1	0.23245470802066848	181.839518	182.994245	1.1546741777777778	time.process_time()
2	as1909	Male	19	True	True	False	4,16	Yes - corrected-to-normal vision	1	87	4	3	1	0.34283483400940895	182.994492	184.148515	1.1546741777777778	time.process_time()
2	as1909	Male	19	True	True	False	4,16	Yes - corrected-to-normal vision	1	88	8	3	1	0.3130284170038067	184.148763	185.302699	1.1546741777777778	time.process_time()
2	as1909	Male	19	True	True	False	4,16	Yes - corrected-to-normal vision	1	89	5	3	1	0.2651509999996051	185.302946	186.458072	1.1546741777777778	time.process_time()
2	as1909	Male	19	True	True	False	4,16	Yes - corrected-to-normal vision	1	90	7	3	1	0.2507877500029281	186.458317	187.612263	1.1546741777777778	time.process_time()
