condition	part_id	part_gender	part_age	instagram	messenger	imessage	screentime	part_normal_vision	block_num	trial_num	number	omit_num	resp_acc	resp_rt	trial_start_time_s	trial_end_time_s	mean_trial_time_s	timing_function
3	do5437	Female	23	True	True	False	1,29	Yes - normal vision	0	1	6	3	1	0.417345458001364	44.787533	46.844372	2.0562931666666673	time.process_time()
3	do5437	Female	23	True	True	False	1,29	Yes - normal vision	0	2	4	3	1	0.2591973750095349	46.844652	48.901269	2.0562931666666673	time.process_time()
3	do5437	Female	23	True	True	False	1,29	Yes - normal vision	0	3	4	3	1	0.24244066700339317	48.901549	50.957513	2.0562931666666673	time.process_time()
3	do5437	Female	23	True	True	False	1,29	Yes - normal vision	0	4	3	3	0	0.3135300420108251	50.957815	53.012963	2.0562931666666673	time.process_time()
3	do5437	Female	23	True	True	False	1,29	Yes - normal vision	0	5	2	3	1	0.7634098329872359	53.013226	55.069824	2.0562931666666673	time.process_time()
3	do5437	Female	23	True	True	False	1,29	Yes - normal vision	0	6	8	3	1	0.9906472079746891	55.070117	57.12631	2.0562931666666673	time.process_time()
3	do5437	Female	23	True	True	False	1,29	Yes - normal vision	0	7	1	3	1	0.6215829580032732	57.126579	59.182426	2.0562931666666673	time.process_time()
3	do5437	Female	23	True	True	False	1,29	Yes - normal vision	0	8	9	3	1	0.3594512499985285	59.182688	61.23887	2.0562931666666673	time.process_time()
3	do5437	Female	23	True	True	False	1,29	Yes - normal vision	0	9	7	3	1	0.29001375002553686	61.239147	63.296062	2.0562931666666673	time.process_time()
3	do5437	Female	23	True	True	False	1,29	Yes - normal vision	0	10	5	3	1	0.3425018749840092	63.296349	65.352246	2.0562931666666673	time.process_time()
3	do5437	Female	23	True	True	False	1,29	Yes - normal vision	0	11	7	3	1	0.32056916601140983	65.352526	67.407925	2.0562931666666673	time.process_time()
3	do5437	Female	23	True	True	False	1,29	Yes - normal vision	0	12	5	3	1	0.4008120000071358	67.408242	69.463833	2.0562931666666673	time.process_time()
3	do5437	Female	23	True	True	False	1,29	Yes - normal vision	0	13	6	3	1	0.35990049998508766	69.464106	71.520602	2.0562931666666673	time.process_time()
3	do5437	Female	23	True	True	False	1,29	Yes - normal vision	0	14	3	3	0	0.3643909170059487	71.520875	73.575849	2.0562931666666673	time.process_time()
3	do5437	Female	23	True	True	False	1,29	Yes - normal vision	0	15	1	3	1	0.376743708999129	73.576128	75.6323	2.0562931666666673	time.process_time()
3	do5437	Female	23	True	True	False	1,29	Yes - normal vision	0	16	9	3	1	0.7282706249970943	75.632577	77.689031	2.0562931666666673	time.process_time()
3	do5437	Female	23	True	True	False	1,29	Yes - normal vision	0	17	8	3	0	NA	77.689325	79.744035	2.0562931666666673	time.process_time()
3	do5437	Female	23	True	True	False	1,29	Yes - normal vision	0	18	2	3	1	0.335572666983353	79.7443	81.799961	2.0562931666666673	time.process_time()
3	do5437	Female	23	True	True	False	1,29	Yes - normal vision	1	1	4	3	1	0.333848250011215	90.977267	92.131637	1.1547257444444445	time.process_time()
3	do5437	Female	23	True	True	False	1,29	Yes - normal vision	1	2	5	3	1	0.3637295000080485	92.131879	93.286278	1.1547257444444445	time.process_time()
3	do5437	Female	23	True	True	False	1,29	Yes - normal vision	1	3	9	3	1	0.5290758330083918	93.286574	94.441316	1.1547257444444445	time.process_time()
3	do5437	Female	23	True	True	False	1,29	Yes - normal vision	1	4	8	3	1	0.48647441700450145	94.441564	95.595119	1.1547257444444445	time.process_time()
3	do5437	Female	23	True	True	False	1,29	Yes - normal vision	1	5	1	3	1	0.36259520798921585	95.595358	96.750001	1.1547257444444445	time.process_time()
3	do5437	Female	23	True	True	False	1,29	Yes - normal vision	1	6	5	3	1	0.2750151670188643	96.750252	97.905306	1.1547257444444445	time.process_time()
3	do5437	Female	23	True	True	False	1,29	Yes - normal vision	1	7	8	3	1	0.28019129199674353	97.905555	99.059578	1.1547257444444445	time.process_time()
3	do5437	Female	23	True	True	False	1,29	Yes - normal vision	1	8	4	3	1	0.30963441700441763	99.059822	100.215158	1.1547257444444445	time.process_time()
3	do5437	Female	23	True	True	False	1,29	Yes - normal vision	1	9	3	3	1	NA	100.215421	101.369836	1.1547257444444445	time.process_time()
3	do5437	Female	23	True	True	False	1,29	Yes - normal vision	1	10	1	3	1	0.32863704100600444	101.370074	102.524753	1.1547257444444445	time.process_time()
3	do5437	Female	23	True	True	False	1,29	Yes - normal vision	1	11	4	3	1	0.3275692499883007	102.524993	103.679675	1.1547257444444445	time.process_time()
3	do5437	Female	23	True	True	False	1,29	Yes - normal vision	1	12	4	3	1	0.29785100001026876	103.679921	104.834786	1.1547257444444445	time.process_time()
3	do5437	Female	23	True	True	False	1,29	Yes - normal vision	1	13	6	3	1	0.3700672499835491	104.835033	105.989136	1.1547257444444445	time.process_time()
3	do5437	Female	23	True	True	False	1,29	Yes - normal vision	1	14	2	3	1	0.3021116250019986	105.989377	107.14353	1.1547257444444445	time.process_time()
3	do5437	Female	23	True	True	False	1,29	Yes - normal vision	1	15	9	3	1	0.31084333299077116	107.143773	108.298115	1.1547257444444445	time.process_time()
3	do5437	Female	23	True	True	False	1,29	Yes - normal vision	1	16	5	3	1	0.3074572919867933	108.298353	109.452306	1.1547257444444445	time.process_time()
3	do5437	Female	23	True	True	False	1,29	Yes - normal vision	1	17	1	3	1	0.31296400001156144	109.452545	110.60669	1.1547257444444445	time.process_time()
3	do5437	Female	23	True	True	False	1,29	Yes - normal vision	1	18	3	3	1	NA	110.606932	111.760634	1.1547257444444445	time.process_time()
3	do5437	Female	23	True	True	False	1,29	Yes - normal vision	1	19	3	3	0	0.19906454099691473	111.760876	112.915952	1.1547257444444445	time.process_time()
3	do5437	Female	23	True	True	False	1,29	Yes - normal vision	1	20	3	3	0	0.3708782909961883	112.916255	114.07063	1.1547257444444445	time.process_time()
3	do5437	Female	23	True	True	False	1,29	Yes - normal vision	1	21	4	3	1	0.6273071250179783	114.070875	115.225157	1.1547257444444445	time.process_time()
3	do5437	Female	23	True	True	False	1,29	Yes - normal vision	1	22	7	3	1	0.48130783301894553	115.225402	116.379962	1.1547257444444445	time.process_time()
3	do5437	Female	23	True	True	False	1,29	Yes - normal vision	1	23	6	3	1	0.4638494590180926	116.380203	117.535053	1.1547257444444445	time.process_time()
3	do5437	Female	23	True	True	False	1,29	Yes - normal vision	1	24	7	3	1	0.3290493339882232	117.535305	118.689291	1.1547257444444445	time.process_time()
3	do5437	Female	23	True	True	False	1,29	Yes - normal vision	1	25	9	3	1	0.3096476250211708	118.689531	119.843624	1.1547257444444445	time.process_time()
3	do5437	Female	23	True	True	False	1,29	Yes - normal vision	1	26	9	3	1	0.30243270899518393	119.843865	120.998996	1.1547257444444445	time.process_time()
3	do5437	Female	23	True	True	False	1,29	Yes - normal vision	1	27	2	3	1	0.36731395800597966	120.999248	122.153236	1.1547257444444445	time.process_time()
3	do5437	Female	23	True	True	False	1,29	Yes - normal vision	1	28	1	3	1	0.43656174998614006	122.153478	123.307698	1.1547257444444445	time.process_time()
3	do5437	Female	23	True	True	False	1,29	Yes - normal vision	1	29	8	3	1	0.3628297079994809	123.307939	124.462182	1.1547257444444445	time.process_time()
3	do5437	Female	23	True	True	False	1,29	Yes - normal vision	1	30	8	3	1	0.3929611659841612	124.462421	125.616167	1.1547257444444445	time.process_time()
3	do5437	Female	23	True	True	False	1,29	Yes - normal vision	1	31	1	3	1	0.47752529199351557	125.616405	126.771214	1.1547257444444445	time.process_time()
3	do5437	Female	23	True	True	False	1,29	Yes - normal vision	1	32	7	3	1	0.2865951659914572	126.771456	127.925445	1.1547257444444445	time.process_time()
3	do5437	Female	23	True	True	False	1,29	Yes - normal vision	1	33	8	3	1	0.36526229200535454	127.925684	129.080513	1.1547257444444445	time.process_time()
3	do5437	Female	23	True	True	False	1,29	Yes - normal vision	1	34	5	3	1	0.38769408300868236	129.080758	130.235844	1.1547257444444445	time.process_time()
3	do5437	Female	23	True	True	False	1,29	Yes - normal vision	1	35	9	3	1	0.28548137500183657	130.23609	131.390422	1.1547257444444445	time.process_time()
3	do5437	Female	23	True	True	False	1,29	Yes - normal vision	1	36	6	3	1	0.38070212499587797	131.390663	132.545327	1.1547257444444445	time.process_time()
3	do5437	Female	23	True	True	False	1,29	Yes - normal vision	1	37	3	3	1	NA	132.545625	133.70089	1.1547257444444445	time.process_time()
3	do5437	Female	23	True	True	False	1,29	Yes - normal vision	1	38	2	3	1	0.2795869999972638	133.701143	134.855321	1.1547257444444445	time.process_time()
3	do5437	Female	23	True	True	False	1,29	Yes - normal vision	1	39	6	3	1	0.2708527079958003	134.855561	136.010521	1.1547257444444445	time.process_time()
3	do5437	Female	23	True	True	False	1,29	Yes - normal vision	1	40	2	3	1	0.28093254199484363	136.010766	137.164873	1.1547257444444445	time.process_time()
3	do5437	Female	23	True	True	False	1,29	Yes - normal vision	1	41	2	3	1	0.3160047499986831	137.165116	138.318857	1.1547257444444445	time.process_time()
3	do5437	Female	23	True	True	False	1,29	Yes - normal vision	1	42	7	3	1	0.2536315420002211	138.319103	139.473432	1.1547257444444445	time.process_time()
3	do5437	Female	23	True	True	False	1,29	Yes - normal vision	1	43	7	3	1	0.25566729198908433	139.473689	140.627991	1.1547257444444445	time.process_time()
3	do5437	Female	23	True	True	False	1,29	Yes - normal vision	1	44	6	3	1	0.3050284589990042	140.628234	141.782796	1.1547257444444445	time.process_time()
3	do5437	Female	23	True	True	False	1,29	Yes - normal vision	1	45	5	3	1	0.3582917090097908	141.783038	142.937924	1.1547257444444445	time.process_time()
3	do5437	Female	23	True	True	False	1,29	Yes - normal vision	1	46	6	3	1	0.3047047919826582	142.938218	144.092943	1.1547257444444445	time.process_time()
3	do5437	Female	23	True	True	False	1,29	Yes - normal vision	1	47	3	3	1	NA	144.09326	145.247837	1.1547257444444445	time.process_time()
3	do5437	Female	23	True	True	False	1,29	Yes - normal vision	1	48	9	3	1	0.22441570900264196	145.248091	146.403145	1.1547257444444445	time.process_time()
3	do5437	Female	23	True	True	False	1,29	Yes - normal vision	1	49	8	3	1	0.22809675001190044	146.40339	147.557309	1.1547257444444445	time.process_time()
3	do5437	Female	23	True	True	False	1,29	Yes - normal vision	1	50	1	3	1	0.24034954200033098	147.557556	148.712782	1.1547257444444445	time.process_time()
3	do5437	Female	23	True	True	False	1,29	Yes - normal vision	1	51	4	3	1	0.22152429199195467	148.713029	149.867561	1.1547257444444445	time.process_time()
3	do5437	Female	23	True	True	False	1,29	Yes - normal vision	1	52	2	3	1	0.26367049998953007	149.867807	151.021224	1.1547257444444445	time.process_time()
3	do5437	Female	23	True	True	False	1,29	Yes - normal vision	1	53	7	3	1	0.30067037499975413	151.021463	152.176376	1.1547257444444445	time.process_time()
3	do5437	Female	23	True	True	False	1,29	Yes - normal vision	1	54	1	3	1	0.27953095801058225	152.176657	153.331264	1.1547257444444445	time.process_time()
3	do5437	Female	23	True	True	False	1,29	Yes - normal vision	1	55	4	3	1	0.2633412910217885	153.331515	154.485771	1.1547257444444445	time.process_time()
3	do5437	Female	23	True	True	False	1,29	Yes - normal vision	1	56	4	3	1	0.429974583996227	154.486013	155.640342	1.1547257444444445	time.process_time()
3	do5437	Female	23	True	True	False	1,29	Yes - normal vision	1	57	8	3	1	0.46648091700626537	155.640583	156.794211	1.1547257444444445	time.process_time()
3	do5437	Female	23	True	True	False	1,29	Yes - normal vision	1	58	4	3	1	0.32867645801161416	156.794456	157.949159	1.1547257444444445	time.process_time()
3	do5437	Female	23	True	True	False	1,29	Yes - normal vision	1	59	9	3	1	0.3558320000011008	157.949399	159.104141	1.1547257444444445	time.process_time()
3	do5437	Female	23	True	True	False	1,29	Yes - normal vision	1	60	2	3	1	0.2797737920191139	159.104392	160.258697	1.1547257444444445	time.process_time()
3	do5437	Female	23	True	True	False	1,29	Yes - normal vision	1	61	2	3	1	0.32148233297630213	160.25895	161.413381	1.1547257444444445	time.process_time()
3	do5437	Female	23	True	True	False	1,29	Yes - normal vision	1	62	5	3	1	0.3447307920141611	161.413625	162.568938	1.1547257444444445	time.process_time()
3	do5437	Female	23	True	True	False	1,29	Yes - normal vision	1	63	9	3	1	0.28364770801272243	162.569266	163.723332	1.1547257444444445	time.process_time()
3	do5437	Female	23	True	True	False	1,29	Yes - normal vision	1	64	9	3	1	0.2796150000067428	163.723574	164.878478	1.1547257444444445	time.process_time()
3	do5437	Female	23	True	True	False	1,29	Yes - normal vision	1	65	7	3	1	0.3101622079848312	164.878737	166.033334	1.1547257444444445	time.process_time()
3	do5437	Female	23	True	True	False	1,29	Yes - normal vision	1	66	2	3	1	0.3898701670113951	166.033579	167.188126	1.1547257444444445	time.process_time()
3	do5437	Female	23	True	True	False	1,29	Yes - normal vision	1	67	8	3	1	0.3211723330023233	167.18837	168.343057	1.1547257444444445	time.process_time()
3	do5437	Female	23	True	True	False	1,29	Yes - normal vision	1	68	7	3	1	0.30407979199662805	168.3433	169.498232	1.1547257444444445	time.process_time()
3	do5437	Female	23	True	True	False	1,29	Yes - normal vision	1	69	5	3	1	0.28036116700968705	169.498474	170.652422	1.1547257444444445	time.process_time()
3	do5437	Female	23	True	True	False	1,29	Yes - normal vision	1	70	4	3	1	0.2838727919734083	170.652673	171.807525	1.1547257444444445	time.process_time()
3	do5437	Female	23	True	True	False	1,29	Yes - normal vision	1	71	5	3	1	0.2840529169770889	171.807769	172.961258	1.1547257444444445	time.process_time()
3	do5437	Female	23	True	True	False	1,29	Yes - normal vision	1	72	1	3	1	0.26422262500273064	172.961508	174.115899	1.1547257444444445	time.process_time()
3	do5437	Female	23	True	True	False	1,29	Yes - normal vision	1	73	5	3	1	0.2733682499965653	174.116141	175.270994	1.1547257444444445	time.process_time()
3	do5437	Female	23	True	True	False	1,29	Yes - normal vision	1	74	7	3	1	0.2754030420037452	175.271247	176.425509	1.1547257444444445	time.process_time()
3	do5437	Female	23	True	True	False	1,29	Yes - normal vision	1	75	2	3	1	0.2520856249902863	176.425752	177.579821	1.1547257444444445	time.process_time()
3	do5437	Female	23	True	True	False	1,29	Yes - normal vision	1	76	3	3	0	0.18594220897648484	177.580062	178.734862	1.1547257444444445	time.process_time()
3	do5437	Female	23	True	True	False	1,29	Yes - normal vision	1	77	6	3	1	0.14087470900267363	178.735109	179.888901	1.1547257444444445	time.process_time()
3	do5437	Female	23	True	True	False	1,29	Yes - normal vision	1	78	1	3	1	0.29467758399550803	179.889143	181.043204	1.1547257444444445	time.process_time()
3	do5437	Female	23	True	True	False	1,29	Yes - normal vision	1	79	1	3	1	0.28980504200444557	181.043446	182.198406	1.1547257444444445	time.process_time()
3	do5437	Female	23	True	True	False	1,29	Yes - normal vision	1	80	3	3	0	0.22553858300670981	182.19871	183.352887	1.1547257444444445	time.process_time()
3	do5437	Female	23	True	True	False	1,29	Yes - normal vision	1	81	3	3	1	NA	183.35313	184.507794	1.1547257444444445	time.process_time()
3	do5437	Female	23	True	True	False	1,29	Yes - normal vision	1	82	8	3	1	0.49892374998307787	184.508031	185.662835	1.1547257444444445	time.process_time()
3	do5437	Female	23	True	True	False	1,29	Yes - normal vision	1	83	9	3	1	0.46887520799646154	185.663095	186.81737	1.1547257444444445	time.process_time()
3	do5437	Female	23	True	True	False	1,29	Yes - normal vision	1	84	6	3	1	0.39787375001469627	186.817614	187.972129	1.1547257444444445	time.process_time()
3	do5437	Female	23	True	True	False	1,29	Yes - normal vision	1	85	6	3	1	0.3164633749984205	187.972388	189.126443	1.1547257444444445	time.process_time()
3	do5437	Female	23	True	True	False	1,29	Yes - normal vision	1	86	3	3	1	NA	189.126692	190.281264	1.1547257444444445	time.process_time()
3	do5437	Female	23	True	True	False	1,29	Yes - normal vision	1	87	5	3	1	0.20879754101042636	190.281504	191.436245	1.1547257444444445	time.process_time()
3	do5437	Female	23	True	True	False	1,29	Yes - normal vision	1	88	7	3	1	0.28839100000914186	191.436503	192.591465	1.1547257444444445	time.process_time()
3	do5437	Female	23	True	True	False	1,29	Yes - normal vision	1	89	8	3	1	0.34857420800835826	192.591724	193.746415	1.1547257444444445	time.process_time()
3	do5437	Female	23	True	True	False	1,29	Yes - normal vision	1	90	6	3	1	0.29316016598022543	193.746663	194.901874	1.1547257444444445	time.process_time()
