condition	part_id	part_gender	part_age	instagram	messenger	imessage	screentime	part_normal_vision	block_num	trial_num	number	omit_num	resp_acc	resp_rt	trial_start_time_s	trial_end_time_s	mean_trial_time_s	timing_function
1	IB2405	Female	24	False	True	False	1,21	Yes - normal vision	0	1	8	3	1	0.5647772919910494	30.308506	32.365789	2.056321277777778	time.process_time()
1	IB2405	Female	24	False	True	False	1,21	Yes - normal vision	0	2	3	3	1	NA	32.36606	34.420903	2.056321277777778	time.process_time()
1	IB2405	Female	24	False	True	False	1,21	Yes - normal vision	0	3	4	3	1	0.38028000001213513	34.421177	36.477152	2.056321277777778	time.process_time()
1	IB2405	Female	24	False	True	False	1,21	Yes - normal vision	0	4	9	3	1	0.3755622909811791	36.477431	38.534548	2.056321277777778	time.process_time()
1	IB2405	Female	24	False	True	False	1,21	Yes - normal vision	0	5	7	3	1	0.3280039579840377	38.534893	40.590809	2.056321277777778	time.process_time()
1	IB2405	Female	24	False	True	False	1,21	Yes - normal vision	0	6	2	3	1	0.37093987499247305	40.591099	42.646215	2.056321277777778	time.process_time()
1	IB2405	Female	24	False	True	False	1,21	Yes - normal vision	0	7	5	3	1	0.3661771659972146	42.646491	44.702928	2.056321277777778	time.process_time()
1	IB2405	Female	24	False	True	False	1,21	Yes - normal vision	0	8	1	3	1	0.3273124999832362	44.703222	46.758914	2.056321277777778	time.process_time()
1	IB2405	Female	24	False	True	False	1,21	Yes - normal vision	0	9	6	3	1	0.424099333002232	46.759203	48.814302	2.056321277777778	time.process_time()
1	IB2405	Female	24	False	True	False	1,21	Yes - normal vision	0	10	7	3	1	0.31932900001993403	48.814582	50.870499	2.056321277777778	time.process_time()
1	IB2405	Female	24	False	True	False	1,21	Yes - normal vision	0	11	5	3	1	0.3752890419855248	50.870843	52.927017	2.056321277777778	time.process_time()
1	IB2405	Female	24	False	True	False	1,21	Yes - normal vision	0	12	9	3	1	0.3379285420232918	52.92729	54.983812	2.056321277777778	time.process_time()
1	IB2405	Female	24	False	True	False	1,21	Yes - normal vision	0	13	4	3	1	0.3419915830017999	54.984118	57.040149	2.056321277777778	time.process_time()
1	IB2405	Female	24	False	True	False	1,21	Yes - normal vision	0	14	3	3	1	NA	57.04061	59.096981	2.056321277777778	time.process_time()
1	IB2405	Female	24	False	True	False	1,21	Yes - normal vision	0	15	8	3	1	0.31987454200861976	59.097254	61.152924	2.056321277777778	time.process_time()
1	IB2405	Female	24	False	True	False	1,21	Yes - normal vision	0	16	1	3	1	0.39996420801617205	61.153211	63.208572	2.056321277777778	time.process_time()
1	IB2405	Female	24	False	True	False	1,21	Yes - normal vision	0	17	2	3	1	0.3278201670036651	63.208843	65.264585	2.056321277777778	time.process_time()
1	IB2405	Female	24	False	True	False	1,21	Yes - normal vision	0	18	6	3	1	0.365054667025106	65.264859	67.321471	2.056321277777778	time.process_time()
1	IB2405	Female	24	False	True	False	1,21	Yes - normal vision	1	1	4	3	1	0.4290430420078337	75.615938	76.770358	1.1546972111111111	time.process_time()
1	IB2405	Female	24	False	True	False	1,21	Yes - normal vision	1	2	1	3	1	0.30779133399482816	76.770676	77.925866	1.1546972111111111	time.process_time()
1	IB2405	Female	24	False	True	False	1,21	Yes - normal vision	1	3	1	3	1	0.3114558329980355	77.926115	79.080494	1.1546972111111111	time.process_time()
1	IB2405	Female	24	False	True	False	1,21	Yes - normal vision	1	4	2	3	1	0.32021991699002683	79.080743	80.235006	1.1546972111111111	time.process_time()
1	IB2405	Female	24	False	True	False	1,21	Yes - normal vision	1	5	7	3	1	0.32824149998486973	80.235251	81.389978	1.1546972111111111	time.process_time()
1	IB2405	Female	24	False	True	False	1,21	Yes - normal vision	1	6	7	3	1	0.31426445799297653	81.390227	82.544421	1.1546972111111111	time.process_time()
1	IB2405	Female	24	False	True	False	1,21	Yes - normal vision	1	7	8	3	1	0.3278379999974277	82.54466	83.699213	1.1546972111111111	time.process_time()
1	IB2405	Female	24	False	True	False	1,21	Yes - normal vision	1	8	5	3	1	0.30636474999482743	83.69946	84.854645	1.1546972111111111	time.process_time()
1	IB2405	Female	24	False	True	False	1,21	Yes - normal vision	1	9	8	3	1	0.3662567080173176	84.854888	86.008818	1.1546972111111111	time.process_time()
1	IB2405	Female	24	False	True	False	1,21	Yes - normal vision	1	10	1	3	1	0.2796821249939967	86.00906	87.163943	1.1546972111111111	time.process_time()
1	IB2405	Female	24	False	True	False	1,21	Yes - normal vision	1	11	7	3	1	0.30672200000844896	87.164214	88.318792	1.1546972111111111	time.process_time()
1	IB2405	Female	24	False	True	False	1,21	Yes - normal vision	1	12	6	3	1	0.3031707920017652	88.319043	89.472567	1.1546972111111111	time.process_time()
1	IB2405	Female	24	False	True	False	1,21	Yes - normal vision	1	13	6	3	1	0.29214487501303665	89.472807	90.627592	1.1546972111111111	time.process_time()
1	IB2405	Female	24	False	True	False	1,21	Yes - normal vision	1	14	5	3	1	0.3721625000180211	90.627837	91.78229	1.1546972111111111	time.process_time()
1	IB2405	Female	24	False	True	False	1,21	Yes - normal vision	1	15	4	3	1	0.3032857079815585	91.782542	92.936834	1.1546972111111111	time.process_time()
1	IB2405	Female	24	False	True	False	1,21	Yes - normal vision	1	16	3	3	0	0.3203972920018714	92.937077	94.091527	1.1546972111111111	time.process_time()
1	IB2405	Female	24	False	True	False	1,21	Yes - normal vision	1	17	9	3	1	0.2410549169871956	94.091772	95.246366	1.1546972111111111	time.process_time()
1	IB2405	Female	24	False	True	False	1,21	Yes - normal vision	1	18	4	3	1	0.21679420801228844	95.24661	96.400958	1.1546972111111111	time.process_time()
1	IB2405	Female	24	False	True	False	1,21	Yes - normal vision	1	19	1	3	1	0.47222212501219474	96.401239	97.555754	1.1546972111111111	time.process_time()
1	IB2405	Female	24	False	True	False	1,21	Yes - normal vision	1	20	4	3	1	0.291560165991541	97.555996	98.709272	1.1546972111111111	time.process_time()
1	IB2405	Female	24	False	True	False	1,21	Yes - normal vision	1	21	8	3	1	0.3554987079987768	98.709511	99.864912	1.1546972111111111	time.process_time()
1	IB2405	Female	24	False	True	False	1,21	Yes - normal vision	1	22	3	3	1	NA	99.865167	101.019625	1.1546972111111111	time.process_time()
1	IB2405	Female	24	False	True	False	1,21	Yes - normal vision	1	23	8	3	1	0.28011266599060036	101.019865	102.174617	1.1546972111111111	time.process_time()
1	IB2405	Female	24	False	True	False	1,21	Yes - normal vision	1	24	7	3	1	0.289708750002319	102.174874	103.329465	1.1546972111111111	time.process_time()
1	IB2405	Female	24	False	True	False	1,21	Yes - normal vision	1	25	3	3	1	NA	103.32971	104.484203	1.1546972111111111	time.process_time()
1	IB2405	Female	24	False	True	False	1,21	Yes - normal vision	1	26	2	3	1	0.28076312498888	104.484443	105.639759	1.1546972111111111	time.process_time()
1	IB2405	Female	24	False	True	False	1,21	Yes - normal vision	1	27	9	3	1	0.2772015829978045	105.640141	106.79635	1.1546972111111111	time.process_time()
1	IB2405	Female	24	False	True	False	1,21	Yes - normal vision	1	28	2	3	1	0.4181575830152724	106.796643	107.950753	1.1546972111111111	time.process_time()
1	IB2405	Female	24	False	True	False	1,21	Yes - normal vision	1	29	5	3	1	0.33541866700397804	107.951004	109.10454	1.1546972111111111	time.process_time()
1	IB2405	Female	24	False	True	False	1,21	Yes - normal vision	1	30	8	3	1	0.3392732079955749	109.104786	110.259802	1.1546972111111111	time.process_time()
1	IB2405	Female	24	False	True	False	1,21	Yes - normal vision	1	31	6	3	1	0.41032604200881906	110.260057	111.413956	1.1546972111111111	time.process_time()
1	IB2405	Female	24	False	True	False	1,21	Yes - normal vision	1	32	9	3	1	0.3415066250017844	111.414203	112.568932	1.1546972111111111	time.process_time()
1	IB2405	Female	24	False	True	False	1,21	Yes - normal vision	1	33	5	3	1	0.30459824998979457	112.569174	113.723826	1.1546972111111111	time.process_time()
1	IB2405	Female	24	False	True	False	1,21	Yes - normal vision	1	34	9	3	1	0.3036591669952031	113.72407	114.877445	1.1546972111111111	time.process_time()
1	IB2405	Female	24	False	True	False	1,21	Yes - normal vision	1	35	4	3	1	0.3247166670043953	114.877688	116.031739	1.1546972111111111	time.process_time()
1	IB2405	Female	24	False	True	False	1,21	Yes - normal vision	1	36	7	3	1	0.3895224579900969	116.03198	117.186876	1.1546972111111111	time.process_time()
1	IB2405	Female	24	False	True	False	1,21	Yes - normal vision	1	37	9	3	1	0.33313162499689497	117.187129	118.341117	1.1546972111111111	time.process_time()
1	IB2405	Female	24	False	True	False	1,21	Yes - normal vision	1	38	3	3	1	NA	118.34136	119.495913	1.1546972111111111	time.process_time()
1	IB2405	Female	24	False	True	False	1,21	Yes - normal vision	1	39	3	3	0	0.3220676659839228	119.496147	120.650412	1.1546972111111111	time.process_time()
1	IB2405	Female	24	False	True	False	1,21	Yes - normal vision	1	40	5	3	1	0.24886704198434018	120.650661	121.805277	1.1546972111111111	time.process_time()
1	IB2405	Female	24	False	True	False	1,21	Yes - normal vision	1	41	2	3	1	0.32248745797551237	121.80553	122.959773	1.1546972111111111	time.process_time()
1	IB2405	Female	24	False	True	False	1,21	Yes - normal vision	1	42	2	3	1	0.3566923750040587	122.960017	124.114848	1.1546972111111111	time.process_time()
1	IB2405	Female	24	False	True	False	1,21	Yes - normal vision	1	43	6	3	1	0.28907125000841916	124.115141	125.269044	1.1546972111111111	time.process_time()
1	IB2405	Female	24	False	True	False	1,21	Yes - normal vision	1	44	6	3	1	0.3017818329972215	125.269295	126.424275	1.1546972111111111	time.process_time()
1	IB2405	Female	24	False	True	False	1,21	Yes - normal vision	1	45	1	3	1	0.4248155420063995	126.424542	127.579076	1.1546972111111111	time.process_time()
1	IB2405	Female	24	False	True	False	1,21	Yes - normal vision	1	46	7	3	1	0.36699629202485085	127.579321	128.733537	1.1546972111111111	time.process_time()
1	IB2405	Female	24	False	True	False	1,21	Yes - normal vision	1	47	6	3	1	0.3220608750125393	128.733783	129.888327	1.1546972111111111	time.process_time()
1	IB2405	Female	24	False	True	False	1,21	Yes - normal vision	1	48	6	3	1	0.3399135420040693	129.888579	131.043071	1.1546972111111111	time.process_time()
1	IB2405	Female	24	False	True	False	1,21	Yes - normal vision	1	49	9	3	1	0.3464328749978449	131.043318	132.197918	1.1546972111111111	time.process_time()
1	IB2405	Female	24	False	True	False	1,21	Yes - normal vision	1	50	5	3	1	0.31477945801452734	132.19816	133.352958	1.1546972111111111	time.process_time()
1	IB2405	Female	24	False	True	False	1,21	Yes - normal vision	1	51	3	3	1	NA	133.3532	134.507422	1.1546972111111111	time.process_time()
1	IB2405	Female	24	False	True	False	1,21	Yes - normal vision	1	52	3	3	0	0.26243041700217873	134.507674	135.662569	1.1546972111111111	time.process_time()
1	IB2405	Female	24	False	True	False	1,21	Yes - normal vision	1	53	3	3	0	0.26321345899486914	135.662814	136.817339	1.1546972111111111	time.process_time()
1	IB2405	Female	24	False	True	False	1,21	Yes - normal vision	1	54	8	3	1	0.2958063749829307	136.817635	137.971159	1.1546972111111111	time.process_time()
1	IB2405	Female	24	False	True	False	1,21	Yes - normal vision	1	55	2	3	1	0.27019958398886956	137.971399	139.12626	1.1546972111111111	time.process_time()
1	IB2405	Female	24	False	True	False	1,21	Yes - normal vision	1	56	2	3	1	0.4109396670246497	139.126505	140.281299	1.1546972111111111	time.process_time()
1	IB2405	Female	24	False	True	False	1,21	Yes - normal vision	1	57	4	3	1	0.3422757910157088	140.281554	141.435832	1.1546972111111111	time.process_time()
1	IB2405	Female	24	False	True	False	1,21	Yes - normal vision	1	58	4	3	1	0.3973932920198422	141.436072	142.590445	1.1546972111111111	time.process_time()
1	IB2405	Female	24	False	True	False	1,21	Yes - normal vision	1	59	7	3	1	0.36659754201537	142.590688	143.744979	1.1546972111111111	time.process_time()
1	IB2405	Female	24	False	True	False	1,21	Yes - normal vision	1	60	3	3	1	NA	143.745225	144.898439	1.1546972111111111	time.process_time()
1	IB2405	Female	24	False	True	False	1,21	Yes - normal vision	1	61	9	3	1	0.4492003330087755	144.898685	146.053252	1.1546972111111111	time.process_time()
1	IB2405	Female	24	False	True	False	1,21	Yes - normal vision	1	62	9	3	1	0.3451057079946622	146.053561	147.207852	1.1546972111111111	time.process_time()
1	IB2405	Female	24	False	True	False	1,21	Yes - normal vision	1	63	4	3	1	0.3490791250078473	147.208106	148.362706	1.1546972111111111	time.process_time()
1	IB2405	Female	24	False	True	False	1,21	Yes - normal vision	1	64	6	3	1	0.3375542499998119	148.362952	149.51741	1.1546972111111111	time.process_time()
1	IB2405	Female	24	False	True	False	1,21	Yes - normal vision	1	65	9	3	1	0.3344619169947691	149.517654	150.670991	1.1546972111111111	time.process_time()
1	IB2405	Female	24	False	True	False	1,21	Yes - normal vision	1	66	6	3	1	0.4964869160030503	150.671236	151.826253	1.1546972111111111	time.process_time()
1	IB2405	Female	24	False	True	False	1,21	Yes - normal vision	1	67	5	3	1	0.4343463749974035	151.826504	152.980618	1.1546972111111111	time.process_time()
1	IB2405	Female	24	False	True	False	1,21	Yes - normal vision	1	68	8	3	1	0.4288456659996882	152.980863	154.134795	1.1546972111111111	time.process_time()
1	IB2405	Female	24	False	True	False	1,21	Yes - normal vision	1	69	2	3	1	0.373420833988348	154.135039	155.289871	1.1546972111111111	time.process_time()
1	IB2405	Female	24	False	True	False	1,21	Yes - normal vision	1	70	5	3	1	0.374007000005804	155.290117	156.444421	1.1546972111111111	time.process_time()
1	IB2405	Female	24	False	True	False	1,21	Yes - normal vision	1	71	2	3	1	0.399615125003038	156.444741	157.598681	1.1546972111111111	time.process_time()
1	IB2405	Female	24	False	True	False	1,21	Yes - normal vision	1	72	4	3	1	0.40590679200249724	157.59893	158.753912	1.1546972111111111	time.process_time()
1	IB2405	Female	24	False	True	False	1,21	Yes - normal vision	1	73	2	3	1	0.3771892090153415	158.754164	159.908481	1.1546972111111111	time.process_time()
1	IB2405	Female	24	False	True	False	1,21	Yes - normal vision	1	74	3	3	1	NA	159.908771	161.062244	1.1546972111111111	time.process_time()
1	IB2405	Female	24	False	True	False	1,21	Yes - normal vision	1	75	7	3	1	0.34671170898946	161.062488	162.217324	1.1546972111111111	time.process_time()
1	IB2405	Female	24	False	True	False	1,21	Yes - normal vision	1	76	1	3	1	0.4813919580192305	162.217577	163.371891	1.1546972111111111	time.process_time()
1	IB2405	Female	24	False	True	False	1,21	Yes - normal vision	1	77	6	3	1	0.35097583298920654	163.372139	164.52685	1.1546972111111111	time.process_time()
1	IB2405	Female	24	False	True	False	1,21	Yes - normal vision	1	78	1	3	1	0.37034724999102764	164.5271	165.681987	1.1546972111111111	time.process_time()
1	IB2405	Female	24	False	True	False	1,21	Yes - normal vision	1	79	5	3	1	0.34651829101494513	165.682291	166.835895	1.1546972111111111	time.process_time()
1	IB2405	Female	24	False	True	False	1,21	Yes - normal vision	1	80	1	3	1	0.3170570840011351	166.836148	167.990619	1.1546972111111111	time.process_time()
1	IB2405	Female	24	False	True	False	1,21	Yes - normal vision	1	81	8	3	1	0.3047426249831915	167.990902	169.145672	1.1546972111111111	time.process_time()
1	IB2405	Female	24	False	True	False	1,21	Yes - normal vision	1	82	9	3	1	0.336922707996564	169.145927	170.300375	1.1546972111111111	time.process_time()
1	IB2405	Female	24	False	True	False	1,21	Yes - normal vision	1	83	8	3	1	0.37000483300653286	170.300618	171.455245	1.1546972111111111	time.process_time()
1	IB2405	Female	24	False	True	False	1,21	Yes - normal vision	1	84	7	3	1	0.31877541699213907	171.455494	172.61056	1.1546972111111111	time.process_time()
1	IB2405	Female	24	False	True	False	1,21	Yes - normal vision	1	85	1	3	1	0.3650379589817021	172.610818	173.764955	1.1546972111111111	time.process_time()
1	IB2405	Female	24	False	True	False	1,21	Yes - normal vision	1	86	1	3	1	0.3224134159972891	173.765206	174.920167	1.1546972111111111	time.process_time()
1	IB2405	Female	24	False	True	False	1,21	Yes - normal vision	1	87	8	3	1	0.3987869579868857	174.920413	176.073946	1.1546972111111111	time.process_time()
1	IB2405	Female	24	False	True	False	1,21	Yes - normal vision	1	88	5	3	1	0.45724012501887046	176.074226	177.228253	1.1546972111111111	time.process_time()
1	IB2405	Female	24	False	True	False	1,21	Yes - normal vision	1	89	7	3	1	0.3863616659946274	177.228498	178.38381	1.1546972111111111	time.process_time()
1	IB2405	Female	24	False	True	False	1,21	Yes - normal vision	1	90	4	3	1	0.3914412090089172	178.384056	179.537994	1.1546972111111111	time.process_time()
