condition	part_id	part_gender	part_age	instagram	messenger	imessage	screentime	part_normal_vision	block_num	trial_num	number	omit_num	resp_acc	resp_rt	trial_start_time_s	trial_end_time_s	mean_trial_time_s	timing_function
3	BB2023	Male	23	True	True	False	1.50	Yes - normal vision	0	1	4	3	0	NA	41.780878	43.837841	2.0561696111111107	time.process_time()
3	BB2023	Male	23	True	True	False	1.50	Yes - normal vision	0	2	1	3	1	0.39644529100041837	43.838118	45.89505	2.0561696111111107	time.process_time()
3	BB2023	Male	23	True	True	False	1.50	Yes - normal vision	0	3	1	3	1	0.37578266600030474	45.895325	47.951507	2.0561696111111107	time.process_time()
3	BB2023	Male	23	True	True	False	1.50	Yes - normal vision	0	4	7	3	1	0.4961161249957513	47.951798	50.006882	2.0561696111111107	time.process_time()
3	BB2023	Male	23	True	True	False	1.50	Yes - normal vision	0	5	2	3	1	0.34359754199977033	50.007179	52.062965	2.0561696111111107	time.process_time()
3	BB2023	Male	23	True	True	False	1.50	Yes - normal vision	0	6	8	3	1	0.24571316700894386	52.063236	54.118841	2.0561696111111107	time.process_time()
3	BB2023	Male	23	True	True	False	1.50	Yes - normal vision	0	7	7	3	1	0.29136829200433567	54.11913	56.174921	2.0561696111111107	time.process_time()
3	BB2023	Male	23	True	True	False	1.50	Yes - normal vision	0	8	2	3	1	0.3066798329818994	56.175191	58.231	2.0561696111111107	time.process_time()
3	BB2023	Male	23	True	True	False	1.50	Yes - normal vision	0	9	6	3	1	0.27565670799231157	58.231279	60.287628	2.0561696111111107	time.process_time()
3	BB2023	Male	23	True	True	False	1.50	Yes - normal vision	0	10	6	3	1	0.2630527500004973	60.287958	62.343957	2.0561696111111107	time.process_time()
3	BB2023	Male	23	True	True	False	1.50	Yes - normal vision	0	11	4	3	1	0.2565155830234289	62.344234	64.399086	2.0561696111111107	time.process_time()
3	BB2023	Male	23	True	True	False	1.50	Yes - normal vision	0	12	9	3	1	0.30341862500063144	64.399354	66.455088	2.0561696111111107	time.process_time()
3	BB2023	Male	23	True	True	False	1.50	Yes - normal vision	0	13	5	3	1	0.31581383300363086	66.455358	68.511528	2.0561696111111107	time.process_time()
3	BB2023	Male	23	True	True	False	1.50	Yes - normal vision	0	14	9	3	1	0.21836774999974295	68.511794	70.566531	2.0561696111111107	time.process_time()
3	BB2023	Male	23	True	True	False	1.50	Yes - normal vision	0	15	5	3	1	0.23048374999780208	70.566823	72.623316	2.0561696111111107	time.process_time()
3	BB2023	Male	23	True	True	False	1.50	Yes - normal vision	0	16	3	3	0	0.2499818330106791	72.623594	74.67987	2.0561696111111107	time.process_time()
3	BB2023	Male	23	True	True	False	1.50	Yes - normal vision	0	17	3	3	0	0.2342474999895785	74.680142	76.735698	2.0561696111111107	time.process_time()
3	BB2023	Male	23	True	True	False	1.50	Yes - normal vision	0	18	8	3	1	0.433427332987776	76.735982	78.791085	2.0561696111111107	time.process_time()
3	BB2023	Male	23	True	True	False	1.50	Yes - normal vision	1	1	3	3	1	NA	92.391298	93.545528	1.1548154222222222	time.process_time()
3	BB2023	Male	23	True	True	False	1.50	Yes - normal vision	1	2	6	3	1	0.3132255829987116	93.545764	94.700534	1.1548154222222222	time.process_time()
3	BB2023	Male	23	True	True	False	1.50	Yes - normal vision	1	3	1	3	1	0.5569063329894561	94.700784	95.855253	1.1548154222222222	time.process_time()
3	BB2023	Male	23	True	True	False	1.50	Yes - normal vision	1	4	7	3	1	0.44003087500459515	95.855506	97.009679	1.1548154222222222	time.process_time()
3	BB2023	Male	23	True	True	False	1.50	Yes - normal vision	1	5	9	3	1	0.35177704200032167	97.009922	98.16447	1.1548154222222222	time.process_time()
3	BB2023	Male	23	True	True	False	1.50	Yes - normal vision	1	6	1	3	1	0.26767212501727045	98.164718	99.318955	1.1548154222222222	time.process_time()
3	BB2023	Male	23	True	True	False	1.50	Yes - normal vision	1	7	6	3	1	0.24172508300398476	99.319195	100.473792	1.1548154222222222	time.process_time()
3	BB2023	Male	23	True	True	False	1.50	Yes - normal vision	1	8	2	3	1	0.2756563750153873	100.474034	101.628815	1.1548154222222222	time.process_time()
3	BB2023	Male	23	True	True	False	1.50	Yes - normal vision	1	9	9	3	1	0.29959075001534075	101.629065	102.783374	1.1548154222222222	time.process_time()
3	BB2023	Male	23	True	True	False	1.50	Yes - normal vision	1	10	1	3	1	0.2751639579946641	102.783616	103.938596	1.1548154222222222	time.process_time()
3	BB2023	Male	23	True	True	False	1.50	Yes - normal vision	1	11	1	3	1	0.3267374999995809	103.938886	105.092631	1.1548154222222222	time.process_time()
3	BB2023	Male	23	True	True	False	1.50	Yes - normal vision	1	12	8	3	1	0.2969676250068005	105.092869	106.247178	1.1548154222222222	time.process_time()
3	BB2023	Male	23	True	True	False	1.50	Yes - normal vision	1	13	2	3	1	0.27923833299428225	106.24743	107.402091	1.1548154222222222	time.process_time()
3	BB2023	Male	23	True	True	False	1.50	Yes - normal vision	1	14	2	3	1	0.2823856250033714	107.402336	108.556547	1.1548154222222222	time.process_time()
3	BB2023	Male	23	True	True	False	1.50	Yes - normal vision	1	15	6	3	1	0.25507954199565575	108.556788	109.711399	1.1548154222222222	time.process_time()
3	BB2023	Male	23	True	True	False	1.50	Yes - normal vision	1	16	9	3	1	0.26770412499899976	109.711645	110.866373	1.1548154222222222	time.process_time()
3	BB2023	Male	23	True	True	False	1.50	Yes - normal vision	1	17	5	3	1	0.26519612499396317	110.866626	112.020423	1.1548154222222222	time.process_time()
3	BB2023	Male	23	True	True	False	1.50	Yes - normal vision	1	18	2	3	1	0.2038831670070067	112.020668	113.175221	1.1548154222222222	time.process_time()
3	BB2023	Male	23	True	True	False	1.50	Yes - normal vision	1	19	9	3	1	0.26747166700079106	113.175465	114.330448	1.1548154222222222	time.process_time()
3	BB2023	Male	23	True	True	False	1.50	Yes - normal vision	1	20	8	3	1	0.22343400001409464	114.330694	115.484606	1.1548154222222222	time.process_time()
3	BB2023	Male	23	True	True	False	1.50	Yes - normal vision	1	21	3	3	0	0.20840504200896248	115.484886	116.63983	1.1548154222222222	time.process_time()
3	BB2023	Male	23	True	True	False	1.50	Yes - normal vision	1	22	4	3	1	0.29263337500742637	116.640075	117.794575	1.1548154222222222	time.process_time()
3	BB2023	Male	23	True	True	False	1.50	Yes - normal vision	1	23	2	3	1	0.2976656670216471	117.794825	118.949145	1.1548154222222222	time.process_time()
3	BB2023	Male	23	True	True	False	1.50	Yes - normal vision	1	24	7	3	1	0.25893641699803993	118.949388	120.103868	1.1548154222222222	time.process_time()
3	BB2023	Male	23	True	True	False	1.50	Yes - normal vision	1	25	5	3	1	0.2659386250015814	120.104111	121.257885	1.1548154222222222	time.process_time()
3	BB2023	Male	23	True	True	False	1.50	Yes - normal vision	1	26	3	3	0	0.27195075000054203	121.258127	122.413079	1.1548154222222222	time.process_time()
3	BB2023	Male	23	True	True	False	1.50	Yes - normal vision	1	27	3	3	1	NA	122.413324	123.567454	1.1548154222222222	time.process_time()
3	BB2023	Male	23	True	True	False	1.50	Yes - normal vision	1	28	8	3	1	0.21838245799881406	123.567714	124.721964	1.1548154222222222	time.process_time()
3	BB2023	Male	23	True	True	False	1.50	Yes - normal vision	1	29	6	3	1	0.2646906659938395	124.722212	125.876676	1.1548154222222222	time.process_time()
3	BB2023	Male	23	True	True	False	1.50	Yes - normal vision	1	30	8	3	1	0.300548458006233	125.87692	127.030771	1.1548154222222222	time.process_time()
3	BB2023	Male	23	True	True	False	1.50	Yes - normal vision	1	31	1	3	1	0.2962694579910021	127.031014	128.185527	1.1548154222222222	time.process_time()
3	BB2023	Male	23	True	True	False	1.50	Yes - normal vision	1	32	3	3	0	0.32479745798627846	128.185779	129.340258	1.1548154222222222	time.process_time()
3	BB2023	Male	23	True	True	False	1.50	Yes - normal vision	1	33	7	3	1	0.3352354580129031	129.340501	130.495653	1.1548154222222222	time.process_time()
3	BB2023	Male	23	True	True	False	1.50	Yes - normal vision	1	34	6	3	1	0.4174616660166066	130.495901	131.649927	1.1548154222222222	time.process_time()
3	BB2023	Male	23	True	True	False	1.50	Yes - normal vision	1	35	8	3	1	0.32240270799957216	131.650167	132.805832	1.1548154222222222	time.process_time()
3	BB2023	Male	23	True	True	False	1.50	Yes - normal vision	1	36	4	3	1	0.3455927500035614	132.806122	133.960389	1.1548154222222222	time.process_time()
3	BB2023	Male	23	True	True	False	1.50	Yes - normal vision	1	37	5	3	1	0.27927845797967166	133.960676	135.115381	1.1548154222222222	time.process_time()
3	BB2023	Male	23	True	True	False	1.50	Yes - normal vision	1	38	5	3	1	0.6338821249955799	135.115636	136.270176	1.1548154222222222	time.process_time()
3	BB2023	Male	23	True	True	False	1.50	Yes - normal vision	1	39	9	3	1	0.25742245800211094	136.27042	137.42468	1.1548154222222222	time.process_time()
3	BB2023	Male	23	True	True	False	1.50	Yes - normal vision	1	40	7	3	1	0.24473558401223272	137.424923	138.580428	1.1548154222222222	time.process_time()
3	BB2023	Male	23	True	True	False	1.50	Yes - normal vision	1	41	5	3	1	0.2906780419871211	138.580728	139.736704	1.1548154222222222	time.process_time()
3	BB2023	Male	23	True	True	False	1.50	Yes - normal vision	1	42	4	3	1	0.3300325000018347	139.736949	140.891063	1.1548154222222222	time.process_time()
3	BB2023	Male	23	True	True	False	1.50	Yes - normal vision	1	43	7	3	1	0.27521295900805853	140.891305	142.046334	1.1548154222222222	time.process_time()
3	BB2023	Male	23	True	True	False	1.50	Yes - normal vision	1	44	4	3	1	0.2818668750114739	142.046575	143.201207	1.1548154222222222	time.process_time()
3	BB2023	Male	23	True	True	False	1.50	Yes - normal vision	1	45	4	3	1	0.23150112500297837	143.20148	144.355772	1.1548154222222222	time.process_time()
3	BB2023	Male	23	True	True	False	1.50	Yes - normal vision	1	46	2	3	1	0.28671133299940266	144.356017	145.51063	1.1548154222222222	time.process_time()
3	BB2023	Male	23	True	True	False	1.50	Yes - normal vision	1	47	3	3	0	0.26503562499419786	145.510875	146.665738	1.1548154222222222	time.process_time()
3	BB2023	Male	23	True	True	False	1.50	Yes - normal vision	1	48	2	3	1	0.302854000008665	146.665984	147.819995	1.1548154222222222	time.process_time()
3	BB2023	Male	23	True	True	False	1.50	Yes - normal vision	1	49	6	3	1	0.35278629200183786	147.820237	148.975619	1.1548154222222222	time.process_time()
3	BB2023	Male	23	True	True	False	1.50	Yes - normal vision	1	50	7	3	1	0.2957498339819722	148.975864	150.129423	1.1548154222222222	time.process_time()
3	BB2023	Male	23	True	True	False	1.50	Yes - normal vision	1	51	8	3	1	0.2842992499936372	150.129662	151.283679	1.1548154222222222	time.process_time()
3	BB2023	Male	23	True	True	False	1.50	Yes - normal vision	1	52	3	3	0	0.26258166698971763	151.283922	152.43877	1.1548154222222222	time.process_time()
3	BB2023	Male	23	True	True	False	1.50	Yes - normal vision	1	53	9	3	1	0.157345040992368	152.439017	153.592975	1.1548154222222222	time.process_time()
3	BB2023	Male	23	True	True	False	1.50	Yes - normal vision	1	54	9	3	1	0.44453541698749177	153.593244	154.748134	1.1548154222222222	time.process_time()
3	BB2023	Male	23	True	True	False	1.50	Yes - normal vision	1	55	1	3	1	0.4804560839838814	154.748379	155.902985	1.1548154222222222	time.process_time()
3	BB2023	Male	23	True	True	False	1.50	Yes - normal vision	1	56	4	3	1	0.2659336669894401	155.90323	157.058017	1.1548154222222222	time.process_time()
3	BB2023	Male	23	True	True	False	1.50	Yes - normal vision	1	57	8	3	1	0.25932883299537934	157.058267	158.214042	1.1548154222222222	time.process_time()
3	BB2023	Male	23	True	True	False	1.50	Yes - normal vision	1	58	2	3	1	0.2529466250271071	158.214304	159.369964	1.1548154222222222	time.process_time()
3	BB2023	Male	23	True	True	False	1.50	Yes - normal vision	1	59	1	3	1	0.20360633300151676	159.370237	160.524826	1.1548154222222222	time.process_time()
3	BB2023	Male	23	True	True	False	1.50	Yes - normal vision	1	60	9	3	1	0.2508020410023164	160.525131	161.680958	1.1548154222222222	time.process_time()
3	BB2023	Male	23	True	True	False	1.50	Yes - normal vision	1	61	9	3	1	0.16424520799773745	161.68129	162.836856	1.1548154222222222	time.process_time()
3	BB2023	Male	23	True	True	False	1.50	Yes - normal vision	1	62	3	3	0	0.10342054200009443	162.837138	163.991613	1.1548154222222222	time.process_time()
3	BB2023	Male	23	True	True	False	1.50	Yes - normal vision	1	63	6	3	1	0.23782829201081768	163.991867	165.146423	1.1548154222222222	time.process_time()
3	BB2023	Male	23	True	True	False	1.50	Yes - normal vision	1	64	1	3	1	0.21247170900460333	165.146675	166.300936	1.1548154222222222	time.process_time()
3	BB2023	Male	23	True	True	False	1.50	Yes - normal vision	1	65	8	3	1	0.1423547089798376	166.301187	167.456066	1.1548154222222222	time.process_time()
3	BB2023	Male	23	True	True	False	1.50	Yes - normal vision	1	66	4	3	1	0.09184895802172832	167.456314	168.611253	1.1548154222222222	time.process_time()
3	BB2023	Male	23	True	True	False	1.50	Yes - normal vision	1	67	5	3	1	0.10285766699234955	168.611501	169.765664	1.1548154222222222	time.process_time()
3	BB2023	Male	23	True	True	False	1.50	Yes - normal vision	1	68	7	3	1	0.009580665995599702	169.765912	170.920918	1.1548154222222222	time.process_time()
3	BB2023	Male	23	True	True	False	1.50	Yes - normal vision	1	69	1	3	0	NA	170.921181	172.076378	1.1548154222222222	time.process_time()
3	BB2023	Male	23	True	True	False	1.50	Yes - normal vision	1	70	2	3	1	0.2955276249849703	172.076623	173.230971	1.1548154222222222	time.process_time()
3	BB2023	Male	23	True	True	False	1.50	Yes - normal vision	1	71	5	3	1	0.307339666003827	173.231247	174.385902	1.1548154222222222	time.process_time()
3	BB2023	Male	23	True	True	False	1.50	Yes - normal vision	1	72	1	3	1	0.3186494999972638	174.386151	175.54104	1.1548154222222222	time.process_time()
3	BB2023	Male	23	True	True	False	1.50	Yes - normal vision	1	73	6	3	1	0.2696200000063982	175.5413	176.69572	1.1548154222222222	time.process_time()
3	BB2023	Male	23	True	True	False	1.50	Yes - normal vision	1	74	8	3	1	0.25191695799003355	176.695966	177.850111	1.1548154222222222	time.process_time()
3	BB2023	Male	23	True	True	False	1.50	Yes - normal vision	1	75	7	3	1	0.2244204579910729	177.850356	179.004352	1.1548154222222222	time.process_time()
3	BB2023	Male	23	True	True	False	1.50	Yes - normal vision	1	76	7	3	1	0.18586562501150183	179.004599	180.158924	1.1548154222222222	time.process_time()
3	BB2023	Male	23	True	True	False	1.50	Yes - normal vision	1	77	5	3	1	0.12142204100382514	180.159169	181.313563	1.1548154222222222	time.process_time()
3	BB2023	Male	23	True	True	False	1.50	Yes - normal vision	1	78	5	3	1	0.06617958401329815	181.313809	182.467922	1.1548154222222222	time.process_time()
3	BB2023	Male	23	True	True	False	1.50	Yes - normal vision	1	79	5	3	1	0.09702116600237787	182.468167	183.622537	1.1548154222222222	time.process_time()
3	BB2023	Male	23	True	True	False	1.50	Yes - normal vision	1	80	4	3	1	0.13292591701610945	183.622786	184.77764	1.1548154222222222	time.process_time()
3	BB2023	Male	23	True	True	False	1.50	Yes - normal vision	1	81	3	3	0	0.1568446250166744	184.777884	185.932318	1.1548154222222222	time.process_time()
3	BB2023	Male	23	True	True	False	1.50	Yes - normal vision	1	82	9	3	1	0.15033279100316577	185.932567	187.087471	1.1548154222222222	time.process_time()
3	BB2023	Male	23	True	True	False	1.50	Yes - normal vision	1	83	4	3	1	0.11431633299798705	187.087719	188.242322	1.1548154222222222	time.process_time()
3	BB2023	Male	23	True	True	False	1.50	Yes - normal vision	1	84	8	3	1	0.18473016598727554	188.24257	189.396748	1.1548154222222222	time.process_time()
3	BB2023	Male	23	True	True	False	1.50	Yes - normal vision	1	85	7	3	1	0.16481945899431594	189.396994	190.5516	1.1548154222222222	time.process_time()
3	BB2023	Male	23	True	True	False	1.50	Yes - normal vision	1	86	6	3	1	0.1394968329987023	190.55184	191.705905	1.1548154222222222	time.process_time()
3	BB2023	Male	23	True	True	False	1.50	Yes - normal vision	1	87	3	3	0	0.16869579098420218	191.706155	192.86044	1.1548154222222222	time.process_time()
3	BB2023	Male	23	True	True	False	1.50	Yes - normal vision	1	88	2	3	1	0.2302683750167489	192.860741	194.015376	1.1548154222222222	time.process_time()
3	BB2023	Male	23	True	True	False	1.50	Yes - normal vision	1	89	4	3	1	0.21934604202397168	194.015628	195.169437	1.1548154222222222	time.process_time()
3	BB2023	Male	23	True	True	False	1.50	Yes - normal vision	1	90	6	3	1	0.19679370801895857	195.169685	196.323972	1.1548154222222222	time.process_time()
