condition	part_id	part_gender	part_age	instagram	messenger	imessage	screentime	part_normal_vision	block_num	trial_num	number	omit_num	resp_acc	resp_rt	trial_start_time_s	trial_end_time_s	mean_trial_time_s	timing_function
3	aa2222	Female	24	True	True	True	1,29	Yes - normal vision	0	1	5	3	0	NA	35.494382	37.551649	2.0562793333333333	time.process_time()
3	aa2222	Female	24	True	True	True	1,29	Yes - normal vision	0	2	1	3	1	0.42486508400179446	37.551928	39.607284	2.0562793333333333	time.process_time()
3	aa2222	Female	24	True	True	True	1,29	Yes - normal vision	0	3	7	3	1	0.4025467920000665	39.607569	41.663465	2.0562793333333333	time.process_time()
3	aa2222	Female	24	True	True	True	1,29	Yes - normal vision	0	4	3	3	0	0.3456610410066787	41.663733	43.72052	2.0562793333333333	time.process_time()
3	aa2222	Female	24	True	True	True	1,29	Yes - normal vision	0	5	2	3	0	NA	43.720813	45.776551	2.0562793333333333	time.process_time()
3	aa2222	Female	24	True	True	True	1,29	Yes - normal vision	0	6	4	3	1	0.3446417920058593	45.776914	47.832964	2.0562793333333333	time.process_time()
3	aa2222	Female	24	True	True	True	1,29	Yes - normal vision	0	7	2	3	1	0.3368032080179546	47.833236	49.888804	2.0562793333333333	time.process_time()
3	aa2222	Female	24	True	True	True	1,29	Yes - normal vision	0	8	9	3	1	0.4137988750007935	49.889078	51.944767	2.0562793333333333	time.process_time()
3	aa2222	Female	24	True	True	True	1,29	Yes - normal vision	0	9	5	3	1	0.35904187499545515	51.945044	54.000777	2.0562793333333333	time.process_time()
3	aa2222	Female	24	True	True	True	1,29	Yes - normal vision	0	10	6	3	1	0.37539004199788906	54.00105	56.057126	2.0562793333333333	time.process_time()
3	aa2222	Female	24	True	True	True	1,29	Yes - normal vision	0	11	9	3	1	0.4166303749952931	56.057397	58.113032	2.0562793333333333	time.process_time()
3	aa2222	Female	24	True	True	True	1,29	Yes - normal vision	0	12	8	3	1	0.35065404101624154	58.113324	60.168424	2.0562793333333333	time.process_time()
3	aa2222	Female	24	True	True	True	1,29	Yes - normal vision	0	13	6	3	1	0.3659005409863312	60.168699	62.224611	2.0562793333333333	time.process_time()
3	aa2222	Female	24	True	True	True	1,29	Yes - normal vision	0	14	3	3	0	0.3236748330236878	62.224956	64.281245	2.0562793333333333	time.process_time()
3	aa2222	Female	24	True	True	True	1,29	Yes - normal vision	0	15	1	3	1	0.45517979201395065	64.281538	66.337539	2.0562793333333333	time.process_time()
3	aa2222	Female	24	True	True	True	1,29	Yes - normal vision	0	16	4	3	1	0.369066292012576	66.337846	68.393476	2.0562793333333333	time.process_time()
3	aa2222	Female	24	True	True	True	1,29	Yes - normal vision	0	17	7	3	1	0.38457929200376384	68.393809	70.449735	2.0562793333333333	time.process_time()
3	aa2222	Female	24	True	True	True	1,29	Yes - normal vision	0	18	8	3	1	0.49133300001267344	70.450005	72.506573	2.0562793333333333	time.process_time()
3	aa2222	Female	24	True	True	True	1,29	Yes - normal vision	1	1	9	3	1	0.4379380000173114	78.203465	79.357632	1.1546542444444443	time.process_time()
3	aa2222	Female	24	True	True	True	1,29	Yes - normal vision	1	2	9	3	1	0.3125149590196088	79.357872	80.512777	1.1546542444444443	time.process_time()
3	aa2222	Female	24	True	True	True	1,29	Yes - normal vision	1	3	6	3	1	0.4991478339943569	80.513027	81.666451	1.1546542444444443	time.process_time()
3	aa2222	Female	24	True	True	True	1,29	Yes - normal vision	1	4	5	3	1	0.4224567089986522	81.666691	82.820715	1.1546542444444443	time.process_time()
3	aa2222	Female	24	True	True	True	1,29	Yes - normal vision	1	5	1	3	1	0.36224537499947473	82.820963	83.975783	1.1546542444444443	time.process_time()
3	aa2222	Female	24	True	True	True	1,29	Yes - normal vision	1	6	1	3	1	0.3384062080003787	83.976024	85.129839	1.1546542444444443	time.process_time()
3	aa2222	Female	24	True	True	True	1,29	Yes - normal vision	1	7	2	3	1	0.2587382910132874	85.130101	86.28505	1.1546542444444443	time.process_time()
3	aa2222	Female	24	True	True	True	1,29	Yes - normal vision	1	8	7	3	1	0.29053999998723157	86.285297	87.440168	1.1546542444444443	time.process_time()
3	aa2222	Female	24	True	True	True	1,29	Yes - normal vision	1	9	3	3	0	0.2739075830031652	87.440413	88.594729	1.1546542444444443	time.process_time()
3	aa2222	Female	24	True	True	True	1,29	Yes - normal vision	1	10	8	3	1	0.2712933750008233	88.59497	89.749509	1.1546542444444443	time.process_time()
3	aa2222	Female	24	True	True	True	1,29	Yes - normal vision	1	11	2	3	1	0.2984812500071712	89.749758	90.904569	1.1546542444444443	time.process_time()
3	aa2222	Female	24	True	True	True	1,29	Yes - normal vision	1	12	6	3	1	0.3013683329918422	90.904819	92.058788	1.1546542444444443	time.process_time()
3	aa2222	Female	24	True	True	True	1,29	Yes - normal vision	1	13	1	3	1	0.3404465000203345	92.059028	93.213121	1.1546542444444443	time.process_time()
3	aa2222	Female	24	True	True	True	1,29	Yes - normal vision	1	14	7	3	1	0.2942620830144733	93.213367	94.36745	1.1546542444444443	time.process_time()
3	aa2222	Female	24	True	True	True	1,29	Yes - normal vision	1	15	9	3	1	0.3150254169886466	94.367692	95.522529	1.1546542444444443	time.process_time()
3	aa2222	Female	24	True	True	True	1,29	Yes - normal vision	1	16	7	3	1	0.3627912500232924	95.522808	96.677415	1.1546542444444443	time.process_time()
3	aa2222	Female	24	True	True	True	1,29	Yes - normal vision	1	17	8	3	1	0.355299083981663	96.677663	97.831766	1.1546542444444443	time.process_time()
3	aa2222	Female	24	True	True	True	1,29	Yes - normal vision	1	18	1	3	1	0.33340266699087806	97.832008	98.986487	1.1546542444444443	time.process_time()
3	aa2222	Female	24	True	True	True	1,29	Yes - normal vision	1	19	3	3	0	0.2977797079947777	98.986735	100.141545	1.1546542444444443	time.process_time()
3	aa2222	Female	24	True	True	True	1,29	Yes - normal vision	1	20	2	3	1	0.34230908399331383	100.141794	101.295831	1.1546542444444443	time.process_time()
3	aa2222	Female	24	True	True	True	1,29	Yes - normal vision	1	21	5	3	1	0.27369429101236165	101.296102	102.450315	1.1546542444444443	time.process_time()
3	aa2222	Female	24	True	True	True	1,29	Yes - normal vision	1	22	4	3	1	0.30996449998929165	102.450562	103.605463	1.1546542444444443	time.process_time()
3	aa2222	Female	24	True	True	True	1,29	Yes - normal vision	1	23	6	3	1	0.2754704170220066	103.60571	104.759613	1.1546542444444443	time.process_time()
3	aa2222	Female	24	True	True	True	1,29	Yes - normal vision	1	24	6	3	1	0.22811441699741408	104.759854	105.915042	1.1546542444444443	time.process_time()
3	aa2222	Female	24	True	True	True	1,29	Yes - normal vision	1	25	6	3	1	0.26584304100833833	105.915289	107.069742	1.1546542444444443	time.process_time()
3	aa2222	Female	24	True	True	True	1,29	Yes - normal vision	1	26	2	3	1	0.31409716699272394	107.069987	108.223547	1.1546542444444443	time.process_time()
3	aa2222	Female	24	True	True	True	1,29	Yes - normal vision	1	27	8	3	1	0.33585212501930073	108.223788	109.377837	1.1546542444444443	time.process_time()
3	aa2222	Female	24	True	True	True	1,29	Yes - normal vision	1	28	4	3	1	0.29266395801096223	109.378077	110.532975	1.1546542444444443	time.process_time()
3	aa2222	Female	24	True	True	True	1,29	Yes - normal vision	1	29	3	3	0	0.2807196250068955	110.533232	111.686708	1.1546542444444443	time.process_time()
3	aa2222	Female	24	True	True	True	1,29	Yes - normal vision	1	30	1	3	1	0.31633604201488197	111.686951	112.841651	1.1546542444444443	time.process_time()
3	aa2222	Female	24	True	True	True	1,29	Yes - normal vision	1	31	8	3	1	0.3556275410228409	112.841896	113.996068	1.1546542444444443	time.process_time()
3	aa2222	Female	24	True	True	True	1,29	Yes - normal vision	1	32	5	3	1	0.2517194159736391	113.996318	115.150696	1.1546542444444443	time.process_time()
3	aa2222	Female	24	True	True	True	1,29	Yes - normal vision	1	33	9	3	1	0.3926386669918429	115.150989	116.305969	1.1546542444444443	time.process_time()
3	aa2222	Female	24	True	True	True	1,29	Yes - normal vision	1	34	8	3	1	0.2948485829983838	116.306212	117.460205	1.1546542444444443	time.process_time()
3	aa2222	Female	24	True	True	True	1,29	Yes - normal vision	1	35	5	3	1	0.29045954201137647	117.460445	118.615404	1.1546542444444443	time.process_time()
3	aa2222	Female	24	True	True	True	1,29	Yes - normal vision	1	36	5	3	1	0.30563608297961764	118.615646	119.770084	1.1546542444444443	time.process_time()
3	aa2222	Female	24	True	True	True	1,29	Yes - normal vision	1	37	3	3	0	0.2758535830071196	119.770326	120.9251	1.1546542444444443	time.process_time()
3	aa2222	Female	24	True	True	True	1,29	Yes - normal vision	1	38	3	3	1	NA	120.925353	122.079687	1.1546542444444443	time.process_time()
3	aa2222	Female	24	True	True	True	1,29	Yes - normal vision	1	39	2	3	1	0.3424781250068918	122.079919	123.23469	1.1546542444444443	time.process_time()
3	aa2222	Female	24	True	True	True	1,29	Yes - normal vision	1	40	4	3	1	0.3517719999945257	123.234936	124.389264	1.1546542444444443	time.process_time()
3	aa2222	Female	24	True	True	True	1,29	Yes - normal vision	1	41	4	3	1	0.33784054100397043	124.389504	125.544526	1.1546542444444443	time.process_time()
3	aa2222	Female	24	True	True	True	1,29	Yes - normal vision	1	42	7	3	1	0.3399611249915324	125.544824	126.699474	1.1546542444444443	time.process_time()
3	aa2222	Female	24	True	True	True	1,29	Yes - normal vision	1	43	7	3	1	0.3387433330062777	126.69972	127.854071	1.1546542444444443	time.process_time()
3	aa2222	Female	24	True	True	True	1,29	Yes - normal vision	1	44	9	3	1	0.33357195800635964	127.85432	129.009008	1.1546542444444443	time.process_time()
3	aa2222	Female	24	True	True	True	1,29	Yes - normal vision	1	45	4	3	1	0.3389512090070639	129.009253	130.163516	1.1546542444444443	time.process_time()
3	aa2222	Female	24	True	True	True	1,29	Yes - normal vision	1	46	3	3	1	NA	130.163755	131.317287	1.1546542444444443	time.process_time()
3	aa2222	Female	24	True	True	True	1,29	Yes - normal vision	1	47	6	3	1	0.30239358299877495	131.317528	132.471572	1.1546542444444443	time.process_time()
3	aa2222	Female	24	True	True	True	1,29	Yes - normal vision	1	48	1	3	1	0.42038162500830367	132.471817	133.626417	1.1546542444444443	time.process_time()
3	aa2222	Female	24	True	True	True	1,29	Yes - normal vision	1	49	5	3	1	0.35706591699272394	133.626655	134.781364	1.1546542444444443	time.process_time()
3	aa2222	Female	24	True	True	True	1,29	Yes - normal vision	1	50	4	3	1	0.2679813749855384	134.781634	135.936589	1.1546542444444443	time.process_time()
3	aa2222	Female	24	True	True	True	1,29	Yes - normal vision	1	51	9	3	1	0.25244466701406054	135.936834	137.090738	1.1546542444444443	time.process_time()
3	aa2222	Female	24	True	True	True	1,29	Yes - normal vision	1	52	5	3	1	0.33596150000812486	137.090979	138.246275	1.1546542444444443	time.process_time()
3	aa2222	Female	24	True	True	True	1,29	Yes - normal vision	1	53	2	3	1	0.5839475420070812	138.246534	139.401212	1.1546542444444443	time.process_time()
3	aa2222	Female	24	True	True	True	1,29	Yes - normal vision	1	54	6	3	1	0.35096066602272913	139.401457	140.555723	1.1546542444444443	time.process_time()
3	aa2222	Female	24	True	True	True	1,29	Yes - normal vision	1	55	2	3	1	0.32821491701179184	140.555965	141.710395	1.1546542444444443	time.process_time()
3	aa2222	Female	24	True	True	True	1,29	Yes - normal vision	1	56	3	3	1	NA	141.710638	142.865303	1.1546542444444443	time.process_time()
3	aa2222	Female	24	True	True	True	1,29	Yes - normal vision	1	57	8	3	1	0.28301358298631385	142.865542	144.019823	1.1546542444444443	time.process_time()
3	aa2222	Female	24	True	True	True	1,29	Yes - normal vision	1	58	9	3	1	0.39269349997630343	144.020061	145.175044	1.1546542444444443	time.process_time()
3	aa2222	Female	24	True	True	True	1,29	Yes - normal vision	1	59	9	3	1	0.3335317919845693	145.175333	146.329116	1.1546542444444443	time.process_time()
3	aa2222	Female	24	True	True	True	1,29	Yes - normal vision	1	60	1	3	1	0.4412357920082286	146.329356	147.483626	1.1546542444444443	time.process_time()
3	aa2222	Female	24	True	True	True	1,29	Yes - normal vision	1	61	2	3	1	0.4233464169956278	147.483864	148.637981	1.1546542444444443	time.process_time()
3	aa2222	Female	24	True	True	True	1,29	Yes - normal vision	1	62	1	3	1	0.35255366697674617	148.638225	149.79196	1.1546542444444443	time.process_time()
3	aa2222	Female	24	True	True	True	1,29	Yes - normal vision	1	63	7	3	1	0.32419949999894015	149.792199	150.947103	1.1546542444444443	time.process_time()
3	aa2222	Female	24	True	True	True	1,29	Yes - normal vision	1	64	6	3	1	0.31013683299534023	150.94736	152.101842	1.1546542444444443	time.process_time()
3	aa2222	Female	24	True	True	True	1,29	Yes - normal vision	1	65	9	3	1	0.32230637499014847	152.102097	153.256785	1.1546542444444443	time.process_time()
3	aa2222	Female	24	True	True	True	1,29	Yes - normal vision	1	66	7	3	1	0.3293365829740651	153.257027	154.4117	1.1546542444444443	time.process_time()
3	aa2222	Female	24	True	True	True	1,29	Yes - normal vision	1	67	5	3	1	0.38791529097943567	154.411966	155.566969	1.1546542444444443	time.process_time()
3	aa2222	Female	24	True	True	True	1,29	Yes - normal vision	1	68	7	3	1	0.3284714159963187	155.567217	156.721237	1.1546542444444443	time.process_time()
3	aa2222	Female	24	True	True	True	1,29	Yes - normal vision	1	69	6	3	1	0.40209066701936536	156.721489	157.876271	1.1546542444444443	time.process_time()
3	aa2222	Female	24	True	True	True	1,29	Yes - normal vision	1	70	9	3	1	0.3678605419991072	157.876536	159.03105	1.1546542444444443	time.process_time()
3	aa2222	Female	24	True	True	True	1,29	Yes - normal vision	1	71	3	3	0	0.28437766700517386	159.031297	160.185515	1.1546542444444443	time.process_time()
3	aa2222	Female	24	True	True	True	1,29	Yes - normal vision	1	72	1	3	1	0.2639323329785839	160.185762	161.339955	1.1546542444444443	time.process_time()
3	aa2222	Female	24	True	True	True	1,29	Yes - normal vision	1	73	5	3	1	0.27492383401840925	161.340221	162.494332	1.1546542444444443	time.process_time()
3	aa2222	Female	24	True	True	True	1,29	Yes - normal vision	1	74	6	3	1	0.30666983302216977	162.49457	163.648632	1.1546542444444443	time.process_time()
3	aa2222	Female	24	True	True	True	1,29	Yes - normal vision	1	75	8	3	1	0.3228792499867268	163.648874	164.803783	1.1546542444444443	time.process_time()
3	aa2222	Female	24	True	True	True	1,29	Yes - normal vision	1	76	3	3	0	0.3443320000078529	164.804071	165.957542	1.1546542444444443	time.process_time()
3	aa2222	Female	24	True	True	True	1,29	Yes - normal vision	1	77	7	3	1	0.2568404590128921	165.95778	167.11224	1.1546542444444443	time.process_time()
3	aa2222	Female	24	True	True	True	1,29	Yes - normal vision	1	78	3	3	0	0.29368487498140894	167.112492	168.267362	1.1546542444444443	time.process_time()
3	aa2222	Female	24	True	True	True	1,29	Yes - normal vision	1	79	8	3	1	0.41735404200153425	168.267605	169.421044	1.1546542444444443	time.process_time()
3	aa2222	Female	24	True	True	True	1,29	Yes - normal vision	1	80	4	3	1	0.3467883749981411	169.421283	170.575826	1.1546542444444443	time.process_time()
3	aa2222	Female	24	True	True	True	1,29	Yes - normal vision	1	81	7	3	1	0.38346108299447224	170.576072	171.730465	1.1546542444444443	time.process_time()
3	aa2222	Female	24	True	True	True	1,29	Yes - normal vision	1	82	4	3	1	0.3805815420055296	171.730707	172.884942	1.1546542444444443	time.process_time()
3	aa2222	Female	24	True	True	True	1,29	Yes - normal vision	1	83	2	3	0	NA	172.88518	174.039415	1.1546542444444443	time.process_time()
3	aa2222	Female	24	True	True	True	1,29	Yes - normal vision	1	84	4	3	1	0.3096607080078684	174.039655	175.193604	1.1546542444444443	time.process_time()
3	aa2222	Female	24	True	True	True	1,29	Yes - normal vision	1	85	8	3	1	0.34827083299751393	175.193856	176.348092	1.1546542444444443	time.process_time()
3	aa2222	Female	24	True	True	True	1,29	Yes - normal vision	1	86	2	3	1	0.34993062500143424	176.348334	177.502371	1.1546542444444443	time.process_time()
3	aa2222	Female	24	True	True	True	1,29	Yes - normal vision	1	87	1	3	1	0.5568560420069844	177.502615	178.656511	1.1546542444444443	time.process_time()
3	aa2222	Female	24	True	True	True	1,29	Yes - normal vision	1	88	4	3	1	0.3187040420016274	178.656753	179.811107	1.1546542444444443	time.process_time()
3	aa2222	Female	24	True	True	True	1,29	Yes - normal vision	1	89	8	3	1	0.3798083330038935	179.811423	180.966892	1.1546542444444443	time.process_time()
3	aa2222	Female	24	True	True	True	1,29	Yes - normal vision	1	90	5	3	1	0.3220856249972712	180.967171	182.121627	1.1546542444444443	time.process_time()
