condition	part_id	part_gender	part_age	instagram	messenger	imessage	screentime	part_normal_vision	block_num	trial_num	number	omit_num	resp_acc	resp_rt	trial_start_time_s	trial_end_time_s	mean_trial_time_s	timing_function
3	fl2609	Female	23	True	True	False	1,33	Yes - normal vision	0	1	3	3	1	NA	36.713319	38.770682	2.056366555555556	time.process_time()
3	fl2609	Female	23	True	True	False	1,33	Yes - normal vision	0	2	6	3	1	0.38704408300691284	38.770961	40.827042	2.056366555555556	time.process_time()
3	fl2609	Female	23	True	True	False	1,33	Yes - normal vision	0	3	2	3	1	0.6183649580052588	40.827319	42.882605	2.056366555555556	time.process_time()
3	fl2609	Female	23	True	True	False	1,33	Yes - normal vision	0	4	8	3	1	0.36626133299432695	42.882889	44.938481	2.056366555555556	time.process_time()
3	fl2609	Female	23	True	True	False	1,33	Yes - normal vision	0	5	3	3	1	NA	44.938752	46.99561	2.056366555555556	time.process_time()
3	fl2609	Female	23	True	True	False	1,33	Yes - normal vision	0	6	5	3	1	0.44989091699244455	46.995914	49.051487	2.056366555555556	time.process_time()
3	fl2609	Female	23	True	True	False	1,33	Yes - normal vision	0	7	9	3	1	0.41838837499381043	49.051759	51.108295	2.056366555555556	time.process_time()
3	fl2609	Female	23	True	True	False	1,33	Yes - normal vision	0	8	7	3	1	0.4830592919897754	51.108578	53.164594	2.056366555555556	time.process_time()
3	fl2609	Female	23	True	True	False	1,33	Yes - normal vision	0	9	7	3	1	0.538986166997347	53.164875	55.221056	2.056366555555556	time.process_time()
3	fl2609	Female	23	True	True	False	1,33	Yes - normal vision	0	10	1	3	1	0.6112849590135738	55.221326	57.277614	2.056366555555556	time.process_time()
3	fl2609	Female	23	True	True	False	1,33	Yes - normal vision	0	11	8	3	1	0.4293940420029685	57.277882	59.333549	2.056366555555556	time.process_time()
3	fl2609	Female	23	True	True	False	1,33	Yes - normal vision	0	12	4	3	1	0.4372020419978071	59.333817	61.390116	2.056366555555556	time.process_time()
3	fl2609	Female	23	True	True	False	1,33	Yes - normal vision	0	13	6	3	1	0.39678800001274794	61.390393	63.446303	2.056366555555556	time.process_time()
3	fl2609	Female	23	True	True	False	1,33	Yes - normal vision	0	14	5	3	1	0.49330199998803437	63.446583	65.502165	2.056366555555556	time.process_time()
3	fl2609	Female	23	True	True	False	1,33	Yes - normal vision	0	15	2	3	1	0.41080029201111756	65.50244	67.558043	2.056366555555556	time.process_time()
3	fl2609	Female	23	True	True	False	1,33	Yes - normal vision	0	16	1	3	1	0.369969375024084	67.558311	69.613567	2.056366555555556	time.process_time()
3	fl2609	Female	23	True	True	False	1,33	Yes - normal vision	0	17	9	3	1	0.506037750019459	69.613853	71.66972	2.056366555555556	time.process_time()
3	fl2609	Female	23	True	True	False	1,33	Yes - normal vision	0	18	4	3	1	0.46490658397669904	71.670134	73.727073	2.056366555555556	time.process_time()
3	fl2609	Female	23	True	True	False	1,33	Yes - normal vision	1	1	7	3	1	0.5890362919890322	84.092021	85.246574	1.1546810333333335	time.process_time()
3	fl2609	Female	23	True	True	False	1,33	Yes - normal vision	1	2	8	3	1	0.49511320900637656	85.246817	86.400876	1.1546810333333335	time.process_time()
3	fl2609	Female	23	True	True	False	1,33	Yes - normal vision	1	3	7	3	1	0.3421957079845015	86.401114	87.555009	1.1546810333333335	time.process_time()
3	fl2609	Female	23	True	True	False	1,33	Yes - normal vision	1	4	9	3	1	0.397874333022628	87.555266	88.709485	1.1546810333333335	time.process_time()
3	fl2609	Female	23	True	True	False	1,33	Yes - normal vision	1	5	6	3	1	0.375005791982403	88.709734	89.86446	1.1546810333333335	time.process_time()
3	fl2609	Female	23	True	True	False	1,33	Yes - normal vision	1	6	4	3	1	0.3992285840213299	89.864724	91.019559	1.1546810333333335	time.process_time()
3	fl2609	Female	23	True	True	False	1,33	Yes - normal vision	1	7	1	3	1	0.5202257920172997	91.019806	92.173753	1.1546810333333335	time.process_time()
3	fl2609	Female	23	True	True	False	1,33	Yes - normal vision	1	8	9	3	1	0.3347517920192331	92.173995	93.328775	1.1546810333333335	time.process_time()
3	fl2609	Female	23	True	True	False	1,33	Yes - normal vision	1	9	5	3	1	0.35538262501358986	93.329027	94.484416	1.1546810333333335	time.process_time()
3	fl2609	Female	23	True	True	False	1,33	Yes - normal vision	1	10	9	3	1	0.3973370839958079	94.48467	95.639272	1.1546810333333335	time.process_time()
3	fl2609	Female	23	True	True	False	1,33	Yes - normal vision	1	11	4	3	1	0.4266024579992518	95.639512	96.794433	1.1546810333333335	time.process_time()
3	fl2609	Female	23	True	True	False	1,33	Yes - normal vision	1	12	5	3	1	0.5107463329914026	96.79469	97.948828	1.1546810333333335	time.process_time()
3	fl2609	Female	23	True	True	False	1,33	Yes - normal vision	1	13	5	3	1	0.4523417500022333	97.949072	99.103458	1.1546810333333335	time.process_time()
3	fl2609	Female	23	True	True	False	1,33	Yes - normal vision	1	14	8	3	1	0.33781783300219104	99.103705	100.258368	1.1546810333333335	time.process_time()
3	fl2609	Female	23	True	True	False	1,33	Yes - normal vision	1	15	3	3	1	NA	100.258612	101.412605	1.1546810333333335	time.process_time()
3	fl2609	Female	23	True	True	False	1,33	Yes - normal vision	1	16	7	3	1	0.46752029200433753	101.412846	102.567353	1.1546810333333335	time.process_time()
3	fl2609	Female	23	True	True	False	1,33	Yes - normal vision	1	17	2	3	1	0.47989666598732583	102.567594	103.722657	1.1546810333333335	time.process_time()
3	fl2609	Female	23	True	True	False	1,33	Yes - normal vision	1	18	2	3	1	0.38675729199894704	103.722904	104.876727	1.1546810333333335	time.process_time()
3	fl2609	Female	23	True	True	False	1,33	Yes - normal vision	1	19	1	3	1	0.9071053749939892	104.876968	106.031929	1.1546810333333335	time.process_time()
3	fl2609	Female	23	True	True	False	1,33	Yes - normal vision	1	20	5	3	1	0.7378015409922227	106.03218	107.186693	1.1546810333333335	time.process_time()
3	fl2609	Female	23	True	True	False	1,33	Yes - normal vision	1	21	3	3	1	NA	107.186939	108.340932	1.1546810333333335	time.process_time()
3	fl2609	Female	23	True	True	False	1,33	Yes - normal vision	1	22	6	3	1	0.5014943749993108	108.341168	109.495641	1.1546810333333335	time.process_time()
3	fl2609	Female	23	True	True	False	1,33	Yes - normal vision	1	23	8	3	1	0.5052077499858569	109.495928	110.650798	1.1546810333333335	time.process_time()
3	fl2609	Female	23	True	True	False	1,33	Yes - normal vision	1	24	1	3	1	0.513558832986746	110.651042	111.805109	1.1546810333333335	time.process_time()
3	fl2609	Female	23	True	True	False	1,33	Yes - normal vision	1	25	9	3	1	0.39771283298614435	111.805353	112.960484	1.1546810333333335	time.process_time()
3	fl2609	Female	23	True	True	False	1,33	Yes - normal vision	1	26	6	3	1	0.41176383299170993	112.960727	114.11472	1.1546810333333335	time.process_time()
3	fl2609	Female	23	True	True	False	1,33	Yes - normal vision	1	27	1	3	1	0.46855399999185465	114.114959	115.269247	1.1546810333333335	time.process_time()
3	fl2609	Female	23	True	True	False	1,33	Yes - normal vision	1	28	7	3	1	0.49024337498121895	115.269493	116.424136	1.1546810333333335	time.process_time()
3	fl2609	Female	23	True	True	False	1,33	Yes - normal vision	1	29	8	3	1	0.3785876669862773	116.42438	117.578674	1.1546810333333335	time.process_time()
3	fl2609	Female	23	True	True	False	1,33	Yes - normal vision	1	30	9	3	1	0.3422168329998385	117.578913	118.732963	1.1546810333333335	time.process_time()
3	fl2609	Female	23	True	True	False	1,33	Yes - normal vision	1	31	2	3	1	0.3121929160261061	118.733218	119.88778	1.1546810333333335	time.process_time()
3	fl2609	Female	23	True	True	False	1,33	Yes - normal vision	1	32	2	3	1	0.39750641700811684	119.888044	121.042447	1.1546810333333335	time.process_time()
3	fl2609	Female	23	True	True	False	1,33	Yes - normal vision	1	33	3	3	1	NA	121.042688	122.197484	1.1546810333333335	time.process_time()
3	fl2609	Female	23	True	True	False	1,33	Yes - normal vision	1	34	4	3	1	0.29290770800434984	122.19772	123.35173	1.1546810333333335	time.process_time()
3	fl2609	Female	23	True	True	False	1,33	Yes - normal vision	1	35	6	3	1	0.3305406250001397	123.351973	124.506347	1.1546810333333335	time.process_time()
3	fl2609	Female	23	True	True	False	1,33	Yes - normal vision	1	36	1	3	1	0.5034481670008972	124.506588	125.661108	1.1546810333333335	time.process_time()
3	fl2609	Female	23	True	True	False	1,33	Yes - normal vision	1	37	2	3	1	0.6609970830031671	125.661348	126.816169	1.1546810333333335	time.process_time()
3	fl2609	Female	23	True	True	False	1,33	Yes - normal vision	1	38	4	3	1	0.5787483330059331	126.816426	127.970368	1.1546810333333335	time.process_time()
3	fl2609	Female	23	True	True	False	1,33	Yes - normal vision	1	39	8	3	1	0.6442664579953998	127.970608	129.125498	1.1546810333333335	time.process_time()
3	fl2609	Female	23	True	True	False	1,33	Yes - normal vision	1	40	6	3	1	0.5746526249859016	129.125793	130.279787	1.1546810333333335	time.process_time()
3	fl2609	Female	23	True	True	False	1,33	Yes - normal vision	1	41	5	3	1	0.5645596249960363	130.280032	131.434616	1.1546810333333335	time.process_time()
3	fl2609	Female	23	True	True	False	1,33	Yes - normal vision	1	42	3	3	1	NA	131.434856	132.589115	1.1546810333333335	time.process_time()
3	fl2609	Female	23	True	True	False	1,33	Yes - normal vision	1	43	7	3	1	0.4998251250071917	132.589347	133.743463	1.1546810333333335	time.process_time()
3	fl2609	Female	23	True	True	False	1,33	Yes - normal vision	1	44	3	3	1	NA	133.743712	134.897933	1.1546810333333335	time.process_time()
3	fl2609	Female	23	True	True	False	1,33	Yes - normal vision	1	45	4	3	1	0.31871904199942946	134.898175	136.052926	1.1546810333333335	time.process_time()
3	fl2609	Female	23	True	True	False	1,33	Yes - normal vision	1	46	6	3	1	0.6073747080226894	136.053173	137.207125	1.1546810333333335	time.process_time()
3	fl2609	Female	23	True	True	False	1,33	Yes - normal vision	1	47	1	3	1	0.4757445419963915	137.207366	138.362344	1.1546810333333335	time.process_time()
3	fl2609	Female	23	True	True	False	1,33	Yes - normal vision	1	48	1	3	1	0.6894790829974227	138.3626	139.517004	1.1546810333333335	time.process_time()
3	fl2609	Female	23	True	True	False	1,33	Yes - normal vision	1	49	9	3	1	0.6303043329971842	139.517295	140.671914	1.1546810333333335	time.process_time()
3	fl2609	Female	23	True	True	False	1,33	Yes - normal vision	1	50	8	3	1	0.627996583993081	140.672158	141.826145	1.1546810333333335	time.process_time()
3	fl2609	Female	23	True	True	False	1,33	Yes - normal vision	1	51	4	3	1	0.5416860000113957	141.826388	142.980346	1.1546810333333335	time.process_time()
3	fl2609	Female	23	True	True	False	1,33	Yes - normal vision	1	52	4	3	0	NA	142.980593	144.134623	1.1546810333333335	time.process_time()
3	fl2609	Female	23	True	True	False	1,33	Yes - normal vision	1	53	2	3	1	0.26385458299773745	144.13486	145.288762	1.1546810333333335	time.process_time()
3	fl2609	Female	23	True	True	False	1,33	Yes - normal vision	1	54	9	3	1	0.4088548750150949	145.289006	146.442491	1.1546810333333335	time.process_time()
3	fl2609	Female	23	True	True	False	1,33	Yes - normal vision	1	55	8	3	1	0.528031458001351	146.442732	147.596761	1.1546810333333335	time.process_time()
3	fl2609	Female	23	True	True	False	1,33	Yes - normal vision	1	56	2	3	1	0.34445504102041014	147.597003	148.751368	1.1546810333333335	time.process_time()
3	fl2609	Female	23	True	True	False	1,33	Yes - normal vision	1	57	2	3	1	0.6321287500031758	148.751612	149.905795	1.1546810333333335	time.process_time()
3	fl2609	Female	23	True	True	False	1,33	Yes - normal vision	1	58	3	3	1	NA	149.906041	151.060657	1.1546810333333335	time.process_time()
3	fl2609	Female	23	True	True	False	1,33	Yes - normal vision	1	59	6	3	1	0.3084811250155326	151.060902	152.215672	1.1546810333333335	time.process_time()
3	fl2609	Female	23	True	True	False	1,33	Yes - normal vision	1	60	8	3	1	0.40650787501363084	152.215918	153.36971	1.1546810333333335	time.process_time()
3	fl2609	Female	23	True	True	False	1,33	Yes - normal vision	1	61	6	3	1	0.49123749998398125	153.36996	154.525057	1.1546810333333335	time.process_time()
3	fl2609	Female	23	True	True	False	1,33	Yes - normal vision	1	62	5	3	1	0.36693816698971204	154.525307	155.680516	1.1546810333333335	time.process_time()
3	fl2609	Female	23	True	True	False	1,33	Yes - normal vision	1	63	5	3	1	0.3581166249932721	155.680771	156.835649	1.1546810333333335	time.process_time()
3	fl2609	Female	23	True	True	False	1,33	Yes - normal vision	1	64	8	3	1	0.45612037499086	156.83589	157.990471	1.1546810333333335	time.process_time()
3	fl2609	Female	23	True	True	False	1,33	Yes - normal vision	1	65	3	3	1	NA	157.990714	159.145329	1.1546810333333335	time.process_time()
3	fl2609	Female	23	True	True	False	1,33	Yes - normal vision	1	66	3	3	1	NA	159.145634	160.299543	1.1546810333333335	time.process_time()
3	fl2609	Female	23	True	True	False	1,33	Yes - normal vision	1	67	1	3	1	0.531967540999176	160.299779	161.454525	1.1546810333333335	time.process_time()
3	fl2609	Female	23	True	True	False	1,33	Yes - normal vision	1	68	3	3	0	0.3247413339850027	161.454767	162.608809	1.1546810333333335	time.process_time()
3	fl2609	Female	23	True	True	False	1,33	Yes - normal vision	1	69	9	3	0	NA	162.609053	163.76299	1.1546810333333335	time.process_time()
3	fl2609	Female	23	True	True	False	1,33	Yes - normal vision	1	70	6	3	1	0.5145029580162372	163.763231	164.917569	1.1546810333333335	time.process_time()
3	fl2609	Female	23	True	True	False	1,33	Yes - normal vision	1	71	4	3	1	0.3393035829940345	164.917813	166.072036	1.1546810333333335	time.process_time()
3	fl2609	Female	23	True	True	False	1,33	Yes - normal vision	1	72	7	3	1	0.45562525000423193	166.072277	167.226839	1.1546810333333335	time.process_time()
3	fl2609	Female	23	True	True	False	1,33	Yes - normal vision	1	73	2	3	1	0.3650084589899052	167.227082	168.381948	1.1546810333333335	time.process_time()
3	fl2609	Female	23	True	True	False	1,33	Yes - normal vision	1	74	8	3	1	0.35462679198826663	168.382205	169.536605	1.1546810333333335	time.process_time()
3	fl2609	Female	23	True	True	False	1,33	Yes - normal vision	1	75	9	3	1	0.3610309580108151	169.536848	170.691763	1.1546810333333335	time.process_time()
3	fl2609	Female	23	True	True	False	1,33	Yes - normal vision	1	76	1	3	1	0.37100291601382196	170.692021	171.84657	1.1546810333333335	time.process_time()
3	fl2609	Female	23	True	True	False	1,33	Yes - normal vision	1	77	7	3	1	0.325560500001302	171.846817	173.001107	1.1546810333333335	time.process_time()
3	fl2609	Female	23	True	True	False	1,33	Yes - normal vision	1	78	4	3	1	0.4925399160129018	173.001353	174.155981	1.1546810333333335	time.process_time()
3	fl2609	Female	23	True	True	False	1,33	Yes - normal vision	1	79	1	3	1	0.32968312498996966	174.156222	175.311034	1.1546810333333335	time.process_time()
3	fl2609	Female	23	True	True	False	1,33	Yes - normal vision	1	80	5	3	1	0.3607029590057209	175.311279	176.465246	1.1546810333333335	time.process_time()
3	fl2609	Female	23	True	True	False	1,33	Yes - normal vision	1	81	4	3	1	0.3093262079928536	176.465485	177.620281	1.1546810333333335	time.process_time()
3	fl2609	Female	23	True	True	False	1,33	Yes - normal vision	1	82	3	3	1	NA	177.620524	178.774583	1.1546810333333335	time.process_time()
3	fl2609	Female	23	True	True	False	1,33	Yes - normal vision	1	83	6	3	1	0.2977090420026798	178.774876	179.929118	1.1546810333333335	time.process_time()
3	fl2609	Female	23	True	True	False	1,33	Yes - normal vision	1	84	9	3	1	0.34800841598189436	179.929355	181.083843	1.1546810333333335	time.process_time()
3	fl2609	Female	23	True	True	False	1,33	Yes - normal vision	1	85	7	3	1	0.45993329197517596	181.084084	182.238389	1.1546810333333335	time.process_time()
3	fl2609	Female	23	True	True	False	1,33	Yes - normal vision	1	86	5	3	1	0.43392104099621065	182.238628	183.393108	1.1546810333333335	time.process_time()
3	fl2609	Female	23	True	True	False	1,33	Yes - normal vision	1	87	7	3	1	0.6063040829903912	183.393355	184.548168	1.1546810333333335	time.process_time()
3	fl2609	Female	23	True	True	False	1,33	Yes - normal vision	1	88	5	3	1	0.39421687499270774	184.548421	185.702363	1.1546810333333335	time.process_time()
3	fl2609	Female	23	True	True	False	1,33	Yes - normal vision	1	89	2	3	1	0.3917145830055233	185.70261	186.857409	1.1546810333333335	time.process_time()
3	fl2609	Female	23	True	True	False	1,33	Yes - normal vision	1	90	7	3	1	0.5512045419891365	186.857657	188.012596	1.1546810333333335	time.process_time()
